time,data_no.,gyro_x,gyro_y,gyro_z,g_x_scaled,g_y_scaled,g_z_scaled,accel_x,accel_y,accel_z,a_x_scaled,a_y_scaled,a_z_scaled,rotation_x,rotation_y
2019-01-28 20:51:29.85,1,0,0,0,0.0,0.0,0.0,0,0,14892,0.0,0.0,0.9089,0.0,-0.0
2019-01-28 20:51:29.96,2,-429,284,66,-3.2748,2.1679,0.5038,-148,6700,14844,-0.009,0.4089,0.906,24.2915,0.5207
2019-01-28 20:51:30.07,3,-411,275,62,-3.1374,2.0992,0.4733,-128,6684,14836,-0.0078,0.408,0.9055,24.252,0.4507
2019-01-28 20:51:30.17,4,-424,272,60,-3.2366,2.0763,0.458,-92,6668,14592,-0.0056,0.407,0.8906,24.5582,0.3286
2019-01-28 20:51:30.28,5,-436,271,54,-3.3282,2.0687,0.4122,-228,6664,14860,-0.0139,0.4067,0.907,24.1514,0.8021
2019-01-28 20:51:30.39,6,-393,503,46,-3.0,3.8397,0.3511,-196,6720,15092,-0.012,0.4102,0.9211,24.0001,0.6797
2019-01-28 20:51:30.51,7,-433,262,56,-3.3053,2.0,0.4275,-500,6768,15084,-0.0305,0.4131,0.9207,24.1534,1.7323
2019-01-28 20:51:30.62,8,-421,243,68,-3.2137,1.855,0.5191,-56,6760,14972,-0.0034,0.4126,0.9138,24.2995,0.1953
2019-01-28 20:51:30.73,9,-410,265,66,-3.1298,2.0229,0.5038,-124,6684,14816,-0.0076,0.408,0.9043,24.281,0.4371
2019-01-28 20:51:30.84,10,-428,259,94,-3.2672,1.9771,0.7176,-220,6696,14860,-0.0134,0.4087,0.907,24.2542,0.7733
2019-01-28 20:51:30.96,11,-410,245,66,-3.1298,1.8702,0.5038,-200,6492,15088,-0.0122,0.3962,0.9209,23.2792,0.6976
2019-01-28 20:51:31.07,12,-427,3,70,-3.2595,0.0229,0.5344,-200,6724,14732,-0.0122,0.4104,0.8992,24.531,0.7076
2019-01-28 20:51:31.18,13,-430,7,66,-3.2824,0.0534,0.5038,-196,6724,15032,-0.012,0.4104,0.9175,24.0977,0.6819
2019-01-28 20:51:31.29,14,-415,270,73,-3.1679,2.0611,0.5573,-164,6488,14764,-0.01,0.396,0.9011,23.7217,0.5826
2019-01-28 20:51:31.41,15,-417,275,52,-3.1832,2.0992,0.3969,-160,6716,14716,-0.0098,0.4099,0.8982,24.5294,0.5667
2019-01-28 20:51:31.52,16,-429,509,74,-3.2748,3.8855,0.5649,-188,6780,14672,-0.0115,0.4138,0.8955,24.8001,0.6664
2019-01-28 20:51:31.63,17,-429,271,78,-3.2748,2.0687,0.5954,-476,6768,14876,-0.0291,0.4131,0.908,24.4526,1.6683
2019-01-28 20:51:31.74,18,-434,510,69,-3.313,3.8931,0.5267,-196,6868,14632,-0.012,0.4192,0.8931,25.1425,0.6947
2019-01-28 20:51:31.86,19,-416,13,64,-3.1756,0.0992,0.4885,-108,6768,14748,-0.0066,0.4131,0.9001,24.6503,0.3813
2019-01-28 20:51:31.97,20,-435,257,62,-3.3206,1.9618,0.4733,-196,6732,14604,-0.012,0.4109,0.8914,24.7463,0.6983
2019-01-28 20:51:32.08,21,-403,506,81,-3.0763,3.8626,0.6183,-152,6444,14860,-0.0093,0.3933,0.907,23.4427,0.5377
2019-01-28 20:51:32.19,22,-383,277,77,-2.9237,2.1145,0.5878,-136,6704,14744,-0.0083,0.4092,0.8999,24.4501,0.4811
2019-01-28 20:51:32.31,23,-402,252,77,-3.0687,1.9237,0.5878,-240,6728,14820,-0.0146,0.4106,0.9045,24.4143,0.8448
2019-01-28 20:51:32.42,24,-443,509,82,-3.3817,3.8855,0.626,-20,6708,14916,-0.0012,0.4094,0.9104,24.2143,0.0701
2019-01-28 20:51:32.53,25,-389,264,93,-2.9695,2.0153,0.7099,-476,6720,14600,-0.0291,0.4102,0.8911,24.7038,1.6964
2019-01-28 20:51:32.64,26,-421,273,67,-3.2137,2.084,0.5115,-200,6908,14908,-0.0122,0.4216,0.9099,24.8599,0.6974
2019-01-28 20:51:32.76,27,-408,509,80,-3.1145,3.8855,0.6107,-64,6704,14904,-0.0039,0.4092,0.9097,24.2186,0.2244
2019-01-28 20:51:32.87,28,-410,267,60,-3.1298,2.0382,0.458,-152,6888,14628,-0.0093,0.4204,0.8928,25.2135,0.5386
2019-01-28 20:51:32.98,29,-434,253,84,-3.313,1.9313,0.6412,-216,6760,14796,-0.0132,0.4126,0.9031,24.5524,0.7607
2019-01-28 20:51:33.09,30,-423,265,75,-3.229,2.0229,0.5725,-204,6664,14816,-0.0125,0.4067,0.9043,24.2154,0.7194
2019-01-28 20:51:33.21,31,-416,255,74,-3.1756,1.9466,0.5649,-220,6716,14840,-0.0134,0.4099,0.9058,24.3473,0.7738
2019-01-28 20:51:33.32,32,-406,259,73,-3.0992,1.9771,0.5573,-128,6744,14752,-0.0078,0.4116,0.9004,24.5671,0.4521
2019-01-28 20:51:33.43,33,-420,272,79,-3.2061,2.0763,0.6031,-232,6704,15080,-0.0142,0.4092,0.9204,23.9656,0.8054
2019-01-28 20:51:33.55,34,-415,6,57,-3.1679,0.0458,0.4351,-156,6732,14684,-0.0095,0.4109,0.8962,24.6283,0.5533
2019-01-28 20:51:33.66,35,-401,267,87,-3.0611,2.0382,0.6641,-220,6612,14776,-0.0134,0.4036,0.9019,24.1053,0.7786
2019-01-28 20:51:33.78,36,-402,272,85,-3.0687,2.0763,0.6489,-204,6748,14956,-0.0125,0.4119,0.9128,24.2824,0.7123
2019-01-28 20:51:33.89,37,-412,257,67,-3.145,1.9618,0.5115,-192,6680,14744,-0.0117,0.4077,0.8999,24.3718,0.6796
2019-01-28 20:51:34.00,38,-418,269,63,-3.1908,2.0534,0.4809,-52,6768,14760,-0.0032,0.4131,0.9009,24.6331,0.1835
2019-01-28 20:51:34.12,39,-388,239,77,-2.9618,1.8244,0.5878,-104,6696,15028,-0.0063,0.4087,0.9172,24.0157,0.3622
2019-01-28 20:51:34.23,40,-418,258,81,-3.1908,1.9695,0.6183,-232,6636,14972,-0.0142,0.405,0.9138,23.9017,0.8116
2019-01-28 20:51:34.35,41,-413,13,78,-3.1527,0.0992,0.5954,-156,6664,14884,-0.0095,0.4067,0.9084,24.1183,0.5481
2019-01-28 20:51:34.46,42,-435,256,62,-3.3206,1.9542,0.4733,-200,6784,14600,-0.0122,0.4141,0.8911,24.9202,0.7117
2019-01-28 20:51:34.58,43,-422,288,84,-3.2214,2.1985,0.6412,-160,6668,14760,-0.0098,0.407,0.9009,24.3104,0.566
2019-01-28 20:51:34.69,44,-415,2,72,-3.1679,0.0153,0.5496,-60,6728,14876,-0.0037,0.4106,0.908,24.3357,0.2106
2019-01-28 20:51:34.81,45,-407,277,98,-3.1069,2.1145,0.7481,-124,6856,14848,-0.0076,0.4185,0.9062,24.7842,0.4344
2019-01-28 20:51:34.92,46,-394,275,58,-3.0076,2.0992,0.4427,-220,6904,14764,-0.0134,0.4214,0.9011,25.0595,0.7733
2019-01-28 20:51:35.03,47,-412,270,62,-3.145,2.0611,0.4733,-232,6728,14720,-0.0142,0.4106,0.8984,24.5608,0.8213
2019-01-28 20:51:35.15,48,-397,508,49,-3.0305,3.8779,0.374,-140,6756,14680,-0.0085,0.4124,0.896,24.7117,0.4964
2019-01-28 20:51:35.26,49,-410,266,95,-3.1298,2.0305,0.7252,-192,6632,14796,-0.0117,0.4048,0.9031,24.1415,0.6784
2019-01-28 20:51:35.37,50,-414,247,79,-3.1603,1.8855,0.6031,-316,6724,14860,-0.0193,0.4104,0.907,24.3414,1.1099
2019-01-28 20:51:35.48,51,-428,253,61,-3.2672,1.9313,0.4656,-12,6744,14624,-0.0007,0.4116,0.8926,24.7572,0.0427
2019-01-28 20:51:35.60,52,-421,259,81,-3.2137,1.9771,0.6183,-216,6748,14776,-0.0132,0.4119,0.9019,24.5432,0.7618
2019-01-28 20:51:35.71,53,-418,0,52,-3.1908,0.0,0.3969,-176,6532,14696,-0.0107,0.3987,0.897,23.9624,0.627
2019-01-28 20:51:35.82,54,-430,252,69,-3.2824,1.9237,0.5267,-336,6832,14764,-0.0205,0.417,0.9011,24.8266,1.1832
2019-01-28 20:51:35.93,55,-420,264,88,-3.2061,2.0153,0.6718,-148,6768,14776,-0.009,0.4131,0.9019,24.6086,0.5217
2019-01-28 20:51:36.05,56,-411,5,71,-3.1374,0.0382,0.542,-44,6800,14948,-0.0027,0.415,0.9124,24.4612,0.1535
2019-01-28 20:51:36.16,57,-419,262,54,-3.1985,2.0,0.4122,-204,6668,14772,-0.0125,0.407,0.9016,24.2921,0.7211
2019-01-28 20:51:36.27,58,-397,252,61,-3.0305,1.9237,0.4656,-224,6752,14820,-0.0137,0.4121,0.9045,24.4916,0.788
2019-01-28 20:51:36.38,59,-415,256,72,-3.1679,1.9542,0.5496,-88,6680,14632,-0.0054,0.4077,0.8931,24.5379,0.3135
2019-01-28 20:51:36.50,60,-433,257,72,-3.3053,1.9618,0.5496,-112,6756,14836,-0.0068,0.4124,0.9055,24.4829,0.3936
2019-01-28 20:51:36.61,61,-431,250,66,-3.2901,1.9084,0.5038,-184,6816,14792,-0.0112,0.416,0.9028,24.7381,0.6473
2019-01-28 20:51:36.72,62,-401,2,51,-3.0611,0.0153,0.3893,-120,6680,14816,-0.0073,0.4077,0.9043,24.2682,0.423
2019-01-28 20:51:36.83,63,-439,251,58,-3.3511,1.916,0.4427,-164,6420,14924,-0.01,0.3918,0.9109,23.2751,0.5784
2019-01-28 20:51:36.95,64,-420,242,73,-3.2061,1.8473,0.5573,-208,6664,15064,-0.0127,0.4067,0.9194,23.8616,0.7235
2019-01-28 20:51:37.06,65,-423,2,70,-3.229,0.0153,0.5344,-160,6884,14820,-0.0098,0.4202,0.9045,24.9139,0.561
2019-01-28 20:51:37.17,66,-399,249,65,-3.0458,1.9008,0.4962,-176,6672,14820,-0.0107,0.4072,0.9045,24.2359,0.6204
2019-01-28 20:51:37.28,67,-415,262,84,-3.1679,2.0,0.6412,-196,6724,14748,-0.012,0.4104,0.9001,24.5076,0.6928
2019-01-28 20:51:37.40,68,-429,259,74,-3.2748,1.9771,0.5649,-236,6680,14760,-0.0144,0.4077,0.9009,24.3475,0.8346
2019-01-28 20:51:37.51,69,-425,264,50,-3.2443,2.0153,0.3817,-144,6664,14816,-0.0088,0.4067,0.9043,24.2164,0.5078
2019-01-28 20:51:37.62,70,-434,3,53,-3.313,0.0229,0.4046,-212,6736,14816,-0.0129,0.4111,0.9043,24.4464,0.7463
2019-01-28 20:51:37.73,71,-399,13,74,-3.0458,0.0992,0.5649,-40,6788,15088,-0.0024,0.4143,0.9209,24.2226,0.1385
2019-01-28 20:51:37.85,72,-419,272,62,-3.1985,2.0763,0.4733,-228,6708,14908,-0.0139,0.4094,0.9099,24.2233,0.799
2019-01-28 20:51:37.96,73,-427,258,65,-3.2595,1.9695,0.4962,-24,6724,14708,-0.0015,0.4104,0.8977,24.5682,0.085
2019-01-28 20:51:38.07,74,-407,271,94,-3.1069,2.0687,0.7176,-116,6668,14600,-0.0071,0.407,0.8911,24.5461,0.4141
2019-01-28 20:51:38.19,75,-429,245,56,-3.2748,1.8702,0.4275,-168,6412,14792,-0.0103,0.3914,0.9028,23.4343,0.597
2019-01-28 20:51:38.30,76,-404,239,88,-3.084,1.8244,0.6718,-456,6792,15028,-0.0278,0.4146,0.9172,24.311,1.5839
2019-01-28 20:51:38.41,77,-407,13,70,-3.1069,0.0992,0.5344,-140,6740,15052,-0.0085,0.4114,0.9187,24.121,0.4864
2019-01-28 20:51:38.52,78,-417,509,54,-3.1832,3.8855,0.4122,-124,6900,14868,-0.0076,0.4211,0.9075,24.8945,0.4334
2019-01-28 20:51:38.64,79,-437,2,79,-3.3359,0.0153,0.6031,-456,6656,14904,-0.0278,0.4062,0.9097,24.0552,1.6002
2019-01-28 20:51:38.75,80,-419,255,78,-3.1985,1.9466,0.5954,-156,6664,14824,-0.0095,0.4067,0.9048,24.2047,0.5499
2019-01-28 20:51:38.86,81,-397,279,59,-3.0305,2.1298,0.4504,-164,6724,14628,-0.01,0.4104,0.8928,24.6853,0.5836
2019-01-28 20:51:38.97,82,-418,239,70,-3.1908,1.8244,0.5344,-188,6696,14788,-0.0115,0.4087,0.9026,24.3593,0.6635
2019-01-28 20:51:39.09,83,-410,286,75,-3.1298,2.1832,0.5725,-116,6744,14780,-0.0071,0.4116,0.9021,24.5262,0.4091
2019-01-28 20:51:39.21,84,-419,4,71,-3.1985,0.0305,0.542,-68,6468,14944,-0.0042,0.3948,0.9121,23.4035,0.2393
2019-01-28 20:51:39.32,85,-436,257,67,-3.3282,1.9618,0.5115,-104,6880,14796,-0.0063,0.4199,0.9031,24.9374,0.3652
2019-01-28 20:51:39.43,86,-415,266,82,-3.1679,2.0305,0.626,152,6764,14716,0.0093,0.4128,0.8982,24.684,-0.5377
2019-01-28 20:51:39.54,87,-405,242,66,-3.0916,1.8473,0.5038,-240,6736,15080,-0.0146,0.4111,0.9204,24.0669,0.8325
2019-01-28 20:51:39.65,88,-435,506,72,-3.3206,3.8626,0.5496,-124,6772,14692,-0.0076,0.4133,0.8967,24.7457,0.4392
2019-01-28 20:51:39.77,89,-430,279,69,-3.2824,2.1298,0.5267,-192,6664,14792,-0.0117,0.4067,0.9028,24.2504,0.678
2019-01-28 20:51:39.88,90,-406,267,78,-3.0992,2.0382,0.5954,-232,6748,14752,-0.0142,0.4119,0.9004,24.5781,0.8194
2019-01-28 20:51:39.99,91,-442,263,84,-3.374,2.0076,0.6412,-160,6640,14968,-0.0098,0.4053,0.9136,23.9215,0.5598
2019-01-28 20:51:40.11,92,-423,9,71,-3.229,0.0687,0.542,-72,6816,14924,-0.0044,0.416,0.9109,24.5466,0.2514
2019-01-28 20:51:40.22,93,-435,257,60,-3.3206,1.9618,0.458,-192,6436,14764,-0.0117,0.3928,0.9011,23.5518,0.683
2019-01-28 20:51:40.34,94,-429,247,57,-3.2748,1.8855,0.4351,-84,6664,14692,-0.0051,0.4067,0.8967,24.3977,0.2983
2019-01-28 20:51:40.45,95,-430,262,57,-3.2824,2.0,0.4351,-76,6816,14760,-0.0046,0.416,0.9009,24.7867,0.2678
2019-01-28 20:51:40.56,96,-430,260,57,-3.2824,1.9847,0.4351,-144,6736,14696,-0.0088,0.4111,0.897,24.6236,0.5103
2019-01-28 20:51:40.67,97,-434,247,79,-3.313,1.8855,0.6031,-104,6680,15084,-0.0063,0.4077,0.9207,23.8858,0.3612
2019-01-28 20:51:40.77,98,-411,506,50,-3.1374,3.8626,0.3817,-204,6732,14756,-0.0125,0.4109,0.9006,24.5214,0.7206
2019-01-28 20:51:40.88,99,-416,3,49,-3.1756,0.0229,0.374,-180,6644,14900,-0.011,0.4055,0.9094,24.0308,0.6321
2019-01-28 20:51:40.99,100,-425,259,55,-3.2443,1.9771,0.4198,-200,6672,14744,-0.0122,0.4072,0.8999,24.3459,0.708
2019-01-28 20:51:41.09,101,-392,269,55,-2.9924,2.0534,0.4198,-48,6700,14704,-0.0029,0.4089,0.8975,24.4967,0.1702
2019-01-28 20:51:41.20,102,-426,269,90,-3.2519,2.0534,0.687,-136,6612,14840,-0.0083,0.4036,0.9058,24.0146,0.4796
2019-01-28 20:51:41.31,103,-435,234,63,-3.3206,1.7863,0.4809,-188,6748,14924,-0.0115,0.4119,0.9109,24.3288,0.6576
2019-01-28 20:51:41.43,104,-425,508,69,-3.2443,3.8779,0.5267,-116,6900,14612,-0.0071,0.4211,0.8918,25.2767,0.4113
2019-01-28 20:51:41.54,105,-436,277,58,-3.3282,2.1145,0.4427,-128,6764,14800,-0.0078,0.4128,0.9033,24.5609,0.4507
2019-01-28 20:51:41.65,106,-413,278,54,-3.1527,2.1221,0.4122,-88,6752,14892,-0.0054,0.4121,0.9089,24.3891,0.3084
2019-01-28 20:51:41.76,107,-428,268,71,-3.2672,2.0458,0.542,-492,6732,15056,-0.03,0.4109,0.9189,24.0795,1.7087
2019-01-28 20:51:41.88,108,-409,258,81,-3.1221,1.9695,0.6183,-220,6660,14732,-0.0134,0.4065,0.8992,24.3242,0.7796
2019-01-28 20:51:41.99,109,-432,261,65,-3.2977,1.9924,0.4962,-108,6696,14740,-0.0066,0.4087,0.8997,24.4305,0.3822
2019-01-28 20:51:42.10,110,-431,256,61,-3.2901,1.9542,0.4656,-240,6796,14700,-0.0146,0.4148,0.8972,24.8088,0.849
2019-01-28 20:51:42.21,111,-404,274,58,-3.084,2.0916,0.4427,-164,6664,14632,-0.01,0.4067,0.8931,24.4851,0.5844
2019-01-28 20:51:42.33,112,-411,245,70,-3.1374,1.8702,0.5344,-152,6736,14764,-0.0093,0.4111,0.9011,24.5235,0.5366
2019-01-28 20:51:42.44,113,-406,265,60,-3.0992,2.0229,0.458,-104,6736,14844,-0.0063,0.4111,0.906,24.4074,0.3655
2019-01-28 20:51:42.55,114,-404,247,63,-3.084,1.8855,0.4809,-20,6448,14720,-0.0012,0.3936,0.8984,23.6555,0.0713
2019-01-28 20:51:42.66,115,-447,253,62,-3.4122,1.9313,0.4733,-152,6708,14832,-0.0093,0.4094,0.9053,24.3345,0.535
2019-01-28 20:51:42.78,116,-401,250,63,-3.0611,1.9084,0.4809,-236,6676,14988,-0.0144,0.4075,0.9148,24.0067,0.8241
2019-01-28 20:51:42.89,117,-423,262,72,-3.229,2.0,0.5496,-188,6776,14724,-0.0115,0.4136,0.8987,24.7102,0.6645
2019-01-28 20:51:43.00,118,-417,292,83,-3.1832,2.229,0.6336,-136,6744,14816,-0.0083,0.4116,0.9043,24.4733,0.4787
2019-01-28 20:51:43.11,119,-420,502,48,-3.2061,3.8321,0.3664,-160,6704,14600,-0.0098,0.4092,0.8911,24.6622,0.5706
2019-01-28 20:51:43.23,120,-408,8,84,-3.1145,0.0611,0.6412,-52,6688,14920,-0.0032,0.4082,0.9106,24.1445,0.1822
2019-01-28 20:51:43.34,121,-420,16,80,-3.2061,0.1221,0.6107,-240,6744,14904,-0.0146,0.4116,0.9097,24.3438,0.8405
2019-01-28 20:51:43.45,122,-415,277,53,-3.1679,2.1145,0.4046,-64,6808,14948,-0.0039,0.4155,0.9124,24.4865,0.2232
2019-01-28 20:51:43.56,123,-433,289,75,-3.3053,2.2061,0.5725,120,6728,14808,0.0073,0.4106,0.9038,24.4339,-0.4227
2019-01-28 20:51:43.68,124,-411,273,76,-3.1374,2.084,0.5802,-220,6720,14936,-0.0134,0.4102,0.9116,24.2216,0.7696
2019-01-28 20:51:43.79,125,-441,262,69,-3.3664,2.0,0.5267,-64,6908,14832,-0.0039,0.4216,0.9053,24.9735,0.2241
2019-01-28 20:51:43.90,126,-434,269,76,-3.313,2.0534,0.5802,-20,6692,14768,-0.0012,0.4084,0.9014,24.3773,0.0707
2019-01-28 20:51:44.01,127,-437,505,76,-3.3359,3.855,0.5802,-264,6668,14820,-0.0161,0.407,0.9045,24.2211,0.9307
2019-01-28 20:51:44.13,128,-396,502,65,-3.0229,3.8321,0.4962,-204,6672,14760,-0.0125,0.4072,0.9009,24.3225,0.7216
2019-01-28 20:51:44.24,129,-420,245,78,-3.2061,1.8702,0.5954,-200,6712,14612,-0.0122,0.4097,0.8918,24.6696,0.7126
2019-01-28 20:51:44.35,130,-431,282,67,-3.2901,2.1527,0.5115,-200,6684,14696,-0.0122,0.408,0.897,24.4549,0.7097
2019-01-28 20:51:44.46,131,-422,282,58,-3.2214,2.1527,0.4427,-120,6736,14720,-0.0073,0.4111,0.8984,24.5885,0.4247
2019-01-28 20:51:44.58,132,-401,265,67,-3.0611,2.0229,0.5115,-40,6712,14772,-0.0024,0.4097,0.9016,24.4357,0.1412
2019-01-28 20:51:44.69,133,-420,506,50,-3.2061,3.8626,0.3817,-164,6696,14788,-0.01,0.4087,0.9026,24.3597,0.5788
2019-01-28 20:51:44.80,134,-410,267,80,-3.1298,2.0382,0.6107,-36,6708,14772,-0.0022,0.4094,0.9016,24.4228,0.1271
2019-01-28 20:51:44.91,135,-414,250,84,-3.1603,1.9084,0.6412,-100,6728,14820,-0.0061,0.4106,0.9045,24.4167,0.352
2019-01-28 20:51:45.03,136,-417,9,65,-3.1832,0.0687,0.4962,-192,6664,14940,-0.0117,0.4067,0.9119,24.0375,0.6724
2019-01-28 20:51:45.14,137,-437,252,73,-3.3359,1.9237,0.5573,-248,6716,14624,-0.0151,0.4099,0.8926,24.6636,0.8829
2019-01-28 20:51:45.25,138,-407,270,70,-3.1069,2.0611,0.5344,-204,6796,14676,-0.0125,0.4148,0.8958,24.8453,0.7227
2019-01-28 20:51:45.36,139,-414,247,72,-3.1603,1.8855,0.5496,-200,6876,14876,-0.0122,0.4197,0.908,24.8054,0.6992
2019-01-28 20:51:45.48,140,-401,0,54,-3.0611,0.0,0.4122,-504,6776,14600,-0.0308,0.4136,0.8911,24.8834,1.7935
2019-01-28 20:51:45.59,141,-391,271,79,-2.9847,2.0687,0.6031,-484,6716,14864,-0.0295,0.4099,0.9072,24.3035,1.6997
2019-01-28 20:51:45.70,142,-402,258,76,-3.0687,1.9695,0.5802,-156,6676,14840,-0.0095,0.4075,0.9058,24.2201,0.5493
2019-01-28 20:51:45.81,143,-439,250,78,-3.3511,1.9084,0.5954,-176,6752,14748,-0.0107,0.4121,0.9001,24.5979,0.6217
2019-01-28 20:51:45.93,144,-405,261,70,-3.0916,1.9924,0.5344,-120,6672,14788,-0.0073,0.4072,0.9026,24.2831,0.4238
2019-01-28 20:51:46.04,145,-411,273,73,-3.1374,2.084,0.5573,-228,6732,15048,-0.0139,0.4109,0.9185,24.0998,0.7924
2019-01-28 20:51:46.15,146,-431,259,74,-3.2901,1.9771,0.5649,-284,6840,15088,-0.0173,0.4175,0.9209,24.3829,0.9822
2019-01-28 20:51:46.26,147,-408,28,74,-3.1145,0.2137,0.5649,-212,6848,14812,-0.0129,0.418,0.9041,24.8102,0.7443
2019-01-28 20:51:46.38,148,-402,261,72,-3.0687,1.9924,0.5496,-84,6704,14768,-0.0051,0.4092,0.9014,24.4155,0.2967
2019-01-28 20:51:46.49,149,-426,0,57,-3.2519,0.0,0.4351,-180,6752,15064,-0.011,0.4121,0.9194,24.1414,0.6247
2019-01-28 20:51:46.60,150,-420,259,57,-3.2061,1.9771,0.4351,-156,6708,14816,-0.0095,0.4094,0.9043,24.3576,0.5496
2019-01-28 20:51:46.72,151,-392,264,76,-2.9924,2.0153,0.5802,-116,6660,14636,-0.0071,0.4065,0.8933,24.4669,0.4133
2019-01-28 20:51:46.83,152,-408,251,54,-3.1145,1.916,0.4122,-172,6688,14776,-0.0105,0.4082,0.9019,24.3513,0.6076
2019-01-28 20:51:46.94,153,-423,509,70,-3.229,3.8855,0.5344,-128,6744,14812,-0.0078,0.4116,0.9041,24.4793,0.4506
2019-01-28 20:51:47.06,154,-415,280,55,-3.1679,2.1374,0.4198,-100,6768,14840,-0.0061,0.4131,0.9058,24.5156,0.3513
2019-01-28 20:51:47.17,155,-413,500,46,-3.1527,3.8168,0.3511,-188,6800,14860,-0.0115,0.415,0.907,24.5873,0.6591
2019-01-28 20:51:47.28,156,-395,253,72,-3.0153,1.9313,0.5496,-136,6744,14688,-0.0083,0.4116,0.8965,24.6613,0.4821
2019-01-28 20:51:47.39,157,-437,15,87,-3.3359,0.1145,0.6641,-184,6720,14820,-0.0112,0.4102,0.9045,24.3898,0.6478
2019-01-28 20:51:47.51,158,-405,278,62,-3.0916,2.1221,0.4733,-236,6708,14780,-0.0144,0.4094,0.9021,24.4085,0.833
2019-01-28 20:51:47.62,159,-389,284,82,-2.9695,2.1679,0.626,-116,6720,14776,-0.0071,0.4102,0.9019,24.455,0.4094
2019-01-28 20:51:47.73,160,-415,261,75,-3.1679,1.9924,0.5725,-60,6688,14772,-0.0037,0.4082,0.9016,24.3584,0.212
2019-01-28 20:51:47.85,161,-405,272,47,-3.0916,2.0763,0.3588,-172,6692,14816,-0.0105,0.4084,0.9043,24.306,0.6062
2019-01-28 20:51:47.96,162,-431,273,58,-3.2901,2.084,0.4427,-172,6760,14748,-0.0105,0.4126,0.9001,24.6237,0.6074
2019-01-28 20:51:48.07,163,-411,279,85,-3.1374,2.1298,0.6489,-176,6680,14912,-0.0107,0.4077,0.9102,24.129,0.6171
2019-01-28 20:51:48.19,164,-440,265,87,-3.3588,2.0229,0.6641,-116,6704,14732,-0.0071,0.4092,0.8992,24.4679,0.4106
2019-01-28 20:51:48.30,165,-401,252,59,-3.0611,1.9237,0.4504,-104,6648,14796,-0.0063,0.4058,0.9031,24.1944,0.3673
2019-01-28 20:51:48.41,166,-421,274,62,-3.2137,2.0916,0.4733,-196,6756,14776,-0.012,0.4124,0.9019,24.5693,0.6912
2019-01-28 20:51:48.53,167,-420,287,78,-3.2061,2.1908,0.5954,-252,6416,14592,-0.0154,0.3916,0.8906,23.7316,0.9057
2019-01-28 20:51:48.64,168,-420,255,75,-3.2061,1.9466,0.5725,-240,6660,14700,-0.0146,0.4065,0.8972,24.3706,0.852
2019-01-28 20:51:48.76,169,-430,243,56,-3.2824,1.855,0.4275,-8,6784,14900,-0.0005,0.4141,0.9094,24.4799,0.028
2019-01-28 20:51:48.87,170,-416,273,70,-3.1756,2.084,0.5344,-208,6752,14844,-0.0127,0.4121,0.906,24.457,0.7308
2019-01-28 20:51:48.98,171,-412,2,76,-3.145,0.0153,0.5802,-200,6648,14848,-0.0122,0.4058,0.9062,24.1179,0.7043
2019-01-28 20:51:49.09,172,-425,268,66,-3.2443,2.0458,0.5038,-200,6736,14724,-0.0122,0.4111,0.8987,24.5814,0.7077
2019-01-28 20:51:49.20,173,-437,252,55,-3.3359,1.9237,0.4198,-184,6744,14816,-0.0112,0.4116,0.9043,24.4726,0.6476
2019-01-28 20:51:49.32,174,-426,265,88,-3.2519,2.0229,0.6718,-176,6784,14884,-0.0107,0.4141,0.9084,24.5016,0.6165
2019-01-28 20:51:49.43,175,-432,259,66,-3.2977,1.9771,0.5038,-444,6708,14608,-0.0271,0.4094,0.8916,24.6546,1.5822
2019-01-28 20:51:49.54,176,-419,277,67,-3.1985,2.1145,0.5115,-116,6848,14776,-0.0071,0.418,0.9019,24.8649,0.4081
2019-01-28 20:51:49.66,177,-417,258,71,-3.1832,1.9695,0.542,-240,6424,14872,-0.0146,0.3921,0.9077,23.3593,0.8488
2019-01-28 20:51:49.77,178,-404,12,74,-3.084,0.0916,0.5649,-168,6656,14872,-0.0103,0.4062,0.9077,24.1097,0.5907
2019-01-28 20:51:49.88,179,-406,259,83,-3.0992,1.9771,0.6336,-48,6780,15056,-0.0029,0.4138,0.9189,24.2428,0.1666
2019-01-28 20:51:50.00,180,-432,278,51,-3.2977,2.1221,0.3893,-140,6676,15100,-0.0085,0.4075,0.9216,23.8502,0.4858
2019-01-28 20:51:50.11,181,-431,264,63,-3.2901,2.0153,0.4809,-144,6728,14968,-0.0088,0.4106,0.9136,24.2026,0.5027
2019-01-28 20:51:50.22,182,-439,278,68,-3.3511,2.1221,0.5191,-124,6468,14880,-0.0076,0.3948,0.9082,23.4928,0.4379
2019-01-28 20:51:50.34,183,-410,9,76,-3.1298,0.0687,0.5802,-168,6724,14740,-0.0103,0.4104,0.8997,24.5198,0.5941
2019-01-28 20:51:50.45,184,-415,299,73,-3.1679,2.2824,0.5573,-136,6676,15096,-0.0083,0.4075,0.9214,23.8559,0.4721
2019-01-28 20:51:50.56,185,-393,228,72,-3.0,1.7405,0.5496,-100,6772,14624,-0.0061,0.4133,0.8926,24.8471,0.3555
2019-01-28 20:51:50.67,186,-432,242,65,-3.2977,1.8473,0.4962,-36,6620,14848,-0.0022,0.4041,0.9062,24.0297,0.1269
2019-01-28 20:51:50.79,187,-385,511,78,-2.9389,3.9008,0.5954,-164,6696,14768,-0.01,0.4087,0.9014,24.3888,0.5795
2019-01-28 20:51:50.90,188,-436,504,65,-3.3282,3.8473,0.4962,-204,6888,14764,-0.0125,0.4204,0.9011,25.0088,0.7174
2019-01-28 20:51:51.01,189,-398,275,65,-3.0382,2.0992,0.4962,-192,6708,14944,-0.0117,0.4094,0.9121,24.1724,0.6715
2019-01-28 20:51:51.12,190,-423,288,89,-3.229,2.1985,0.6794,-152,6528,14808,-0.0093,0.3984,0.9038,23.7888,0.5381
2019-01-28 20:51:51.24,191,-405,244,54,-3.0916,1.8626,0.4122,-116,6636,15084,-0.0071,0.405,0.9207,23.7458,0.4033
2019-01-28 20:51:51.35,192,-424,283,79,-3.2366,2.1603,0.6031,-220,6716,14644,-0.0134,0.4099,0.8938,24.6346,0.7824
2019-01-28 20:51:51.46,193,-428,267,74,-3.2672,2.0382,0.5649,20,6692,14752,0.0012,0.4084,0.9004,24.4006,-0.0707
2019-01-28 20:51:51.57,194,-403,9,71,-3.0763,0.0687,0.542,-244,6892,14856,-0.0149,0.4207,0.9067,24.8846,0.8536
2019-01-28 20:51:51.69,195,-414,272,62,-3.1603,2.0763,0.4733,-184,6732,14728,-0.0112,0.4109,0.8989,24.5629,0.651
2019-01-28 20:51:51.80,196,-426,266,71,-3.2519,2.0305,0.542,-240,6740,14848,-0.0146,0.4114,0.9062,24.4121,0.8432
2019-01-28 20:51:51.91,197,-437,272,37,-3.3359,2.0763,0.2824,-172,6728,14728,-0.0105,0.4106,0.8989,24.5502,0.6086
2019-01-28 20:51:52.02,198,-399,267,69,-3.0458,2.0382,0.5267,-164,6744,14860,-0.01,0.4116,0.907,24.4089,0.5758
2019-01-28 20:51:52.13,199,-408,263,59,-3.1145,2.0076,0.4504,-148,6752,14788,-0.009,0.4121,0.9026,24.5397,0.5216
2019-01-28 20:51:52.25,200,-412,287,52,-3.145,2.1908,0.3969,-100,6808,14796,-0.0061,0.4155,0.9031,24.7078,0.3518
2019-01-28 20:51:52.36,201,-415,264,71,-3.1679,2.0153,0.542,-88,6788,14732,-0.0054,0.4143,0.8992,24.7382,0.3108
2019-01-28 20:51:52.47,202,-435,262,36,-3.3206,2.0,0.2748,-204,6736,15028,-0.0125,0.4111,0.9172,24.1414,0.7097
2019-01-28 20:51:52.58,203,-435,250,46,-3.3206,1.9084,0.3511,-116,6660,14820,-0.0071,0.4065,0.9045,24.1981,0.4091
2019-01-28 20:51:52.70,204,-426,246,81,-3.2519,1.8779,0.6183,-100,6668,14608,-0.0061,0.407,0.8916,24.5344,0.3568
2019-01-28 20:51:52.81,205,-400,272,56,-3.0534,2.0763,0.4275,-204,6680,14920,-0.0125,0.4077,0.9106,24.1171,0.715
2019-01-28 20:51:52.92,206,-451,262,62,-3.4427,2.0,0.4733,-268,6704,14784,-0.0164,0.4092,0.9023,24.389,0.9458
2019-01-28 20:51:53.03,207,-404,1,75,-3.084,0.0076,0.5725,-164,6832,14768,-0.01,0.417,0.9014,24.8249,0.5775
2019-01-28 20:51:53.15,208,-404,510,54,-3.084,3.8931,0.4122,-204,6756,14776,-0.0125,0.4124,0.9019,24.5691,0.7194
2019-01-28 20:51:53.26,209,-411,273,61,-3.1374,2.084,0.4656,-116,6724,14884,-0.0071,0.4104,0.9084,24.3109,0.4069
2019-01-28 20:51:53.37,210,-405,269,78,-3.0916,2.0534,0.5954,-176,6760,14988,-0.0107,0.4126,0.9148,24.2752,0.6133
2019-01-28 20:51:53.48,211,-423,268,68,-3.229,2.0458,0.5191,-248,6672,14768,-0.0151,0.4072,0.9014,24.3098,0.8768
2019-01-28 20:51:53.60,212,-399,498,60,-3.0458,3.8015,0.458,-492,6756,15092,-0.03,0.4124,0.9211,24.1045,1.7043
2019-01-28 20:51:53.71,213,-435,511,52,-3.3206,3.9008,0.3969,-144,6872,14816,-0.0088,0.4194,0.9043,24.8819,0.5052
2019-01-28 20:51:53.82,214,-418,261,86,-3.1908,1.9924,0.6565,-188,6736,14596,-0.0115,0.4111,0.8909,24.7713,0.67
2019-01-28 20:51:53.93,215,-417,270,67,-3.1832,2.0611,0.5115,-188,6748,14776,-0.0115,0.4119,0.9019,24.5438,0.6631
2019-01-28 20:51:54.05,216,-413,236,57,-3.1527,1.8015,0.4351,-76,6712,14800,-0.0046,0.4097,0.9033,24.3947,0.268
2019-01-28 20:51:54.16,217,-410,275,59,-3.1298,2.0992,0.4504,-80,6860,14600,-0.0049,0.4187,0.8911,25.1668,0.2841
2019-01-28 20:51:54.27,218,-416,260,65,-3.1756,1.9847,0.4962,-212,6748,14676,-0.0129,0.4119,0.8958,24.6906,0.7519
2019-01-28 20:51:54.38,219,-416,261,70,-3.1756,1.9924,0.5344,-188,6756,14836,-0.0115,0.4124,0.9055,24.4818,0.6607
2019-01-28 20:51:54.50,220,-410,260,53,-3.1298,1.9847,0.4046,-188,6900,14832,-0.0115,0.4211,0.9053,24.9466,0.6584
2019-01-28 20:51:54.61,221,-385,509,63,-2.9389,3.8855,0.4809,-192,6692,15100,-0.0117,0.4084,0.9216,23.9002,0.666
2019-01-28 20:51:54.72,222,-412,504,69,-3.145,3.8473,0.5267,-268,6876,14672,-0.0164,0.4197,0.8955,25.1064,0.9476
2019-01-28 20:51:54.83,223,-403,267,70,-3.0763,2.0382,0.5344,-208,6720,14748,-0.0127,0.4102,0.9001,24.4945,0.7353
2019-01-28 20:51:54.94,224,-416,274,58,-3.1756,2.0916,0.4427,-16,6696,14736,-0.001,0.4087,0.8994,24.4369,0.0566
2019-01-28 20:51:55.06,225,-407,256,61,-3.1069,1.9542,0.4656,-204,6664,14844,-0.0125,0.4067,0.906,24.175,0.7183
2019-01-28 20:51:55.17,226,-424,274,65,-3.2366,2.0916,0.4962,-208,6664,14752,-0.0127,0.4067,0.9004,24.3082,0.7362
2019-01-28 20:51:55.28,227,-407,257,54,-3.1069,1.9618,0.4122,-216,6736,14600,-0.0132,0.4111,0.8911,24.7648,0.7696
2019-01-28 20:51:55.39,228,-442,262,67,-3.374,2.0,0.5115,-136,6692,15044,-0.0083,0.4084,0.9182,23.98,0.4732
2019-01-28 20:51:55.51,229,-418,10,97,-3.1908,0.0763,0.7405,-236,6732,15092,-0.0144,0.4109,0.9211,24.0373,0.8182
2019-01-28 20:51:55.62,230,-404,267,38,-3.084,2.0382,0.2901,-252,6780,14748,-0.0154,0.4138,0.9001,24.6862,0.8894
2019-01-28 20:51:55.73,231,-395,271,64,-3.0153,2.0687,0.4885,-148,6688,14948,-0.009,0.4082,0.9124,24.1035,0.5178
2019-01-28 20:51:55.84,232,-427,259,80,-3.2595,1.9771,0.6107,-396,6744,14784,-0.0242,0.4116,0.9023,24.5132,1.396
2019-01-28 20:51:55.96,233,-409,266,66,-3.1221,2.0305,0.5038,-36,6704,14932,-0.0022,0.4092,0.9114,24.1785,0.126
2019-01-28 20:51:56.07,234,-425,235,64,-3.2443,1.7939,0.4885,-268,6680,14748,-0.0164,0.4077,0.9001,24.3643,0.9483
2019-01-28 20:51:56.18,235,-425,260,73,-3.2443,1.9847,0.5573,-72,6724,14668,-0.0044,0.4104,0.8953,24.6271,0.2557
2019-01-28 20:51:56.29,236,-437,504,61,-3.3359,3.8473,0.4656,-128,6828,14896,-0.0078,0.4167,0.9092,24.6249,0.4476
2019-01-28 20:51:56.41,237,-410,246,79,-3.1298,1.8779,0.6031,-136,6740,15084,-0.0083,0.4114,0.9207,24.0757,0.4716
2019-01-28 20:51:56.52,238,-388,248,65,-2.9618,1.8931,0.4962,-168,6496,14852,-0.0103,0.3965,0.9065,23.6224,0.5938
2019-01-28 20:51:56.63,239,-416,508,80,-3.1756,3.8779,0.6107,-92,6760,15072,-0.0056,0.4126,0.9199,24.1565,0.3191
2019-01-28 20:51:56.74,240,-404,509,46,-3.084,3.8855,0.3511,-160,6748,14672,-0.0098,0.4119,0.8955,24.6975,0.5676
2019-01-28 20:51:56.85,241,-413,277,58,-3.1527,2.1145,0.4427,-164,6744,14748,-0.01,0.4116,0.9001,24.5724,0.5794
2019-01-28 20:51:56.97,242,-398,265,57,-3.0382,2.0229,0.4351,-176,6400,14720,-0.0107,0.3906,0.8984,23.4971,0.6282
2019-01-28 20:51:57.08,243,-418,255,78,-3.1908,1.9466,0.5954,-148,6452,14820,-0.009,0.3938,0.9045,23.5252,0.5246
2019-01-28 20:51:57.19,244,-415,281,52,-3.1679,2.145,0.3969,-136,6796,14804,-0.0083,0.4148,0.9036,24.6573,0.4784
2019-01-28 20:51:57.30,245,-424,8,93,-3.2366,0.0611,0.7099,-176,6724,14840,-0.0107,0.4104,0.9058,24.3738,0.6189
2019-01-28 20:51:57.42,246,-422,12,68,-3.2214,0.0916,0.5191,-148,6784,14636,-0.009,0.4141,0.8933,24.8673,0.5256
2019-01-28 20:51:57.53,247,-413,273,77,-3.1527,2.084,0.5878,-144,6696,14796,-0.0088,0.4087,0.9031,24.3483,0.508
2019-01-28 20:51:57.64,248,-406,272,73,-3.0992,2.0763,0.5573,-224,6740,15080,-0.0137,0.4114,0.9204,24.0799,0.777
2019-01-28 20:51:57.75,249,-440,293,52,-3.3588,2.2366,0.3969,-104,6752,14768,-0.0063,0.4121,0.9014,24.5696,0.367
2019-01-28 20:51:57.87,250,-437,277,41,-3.3359,2.1145,0.313,-100,6724,14784,-0.0061,0.4104,0.9023,24.4563,0.3528
2019-01-28 20:51:57.98,251,-407,257,56,-3.1069,1.9618,0.4275,-248,6672,14964,-0.0151,0.4072,0.9133,24.0277,0.8672
2019-01-28 20:51:58.09,252,-394,249,79,-3.0076,1.9008,0.6031,-44,6480,14852,-0.0027,0.3955,0.9065,23.5718,0.1556
2019-01-28 20:51:58.20,253,-434,279,63,-3.313,2.1298,0.4809,-40,6640,14728,-0.0024,0.4053,0.8989,24.2678,0.1419
2019-01-28 20:51:58.31,254,-404,280,75,-3.084,2.1374,0.5725,-80,6668,14816,-0.0049,0.407,0.9043,24.23,0.2821
2019-01-28 20:51:58.43,255,-411,257,53,-3.1374,1.9618,0.4046,-164,6744,14728,-0.01,0.4116,0.8989,24.6019,0.5801
2019-01-28 20:51:58.54,256,-428,270,71,-3.2672,2.0611,0.542,-156,6652,14776,-0.0095,0.406,0.9019,24.2356,0.5516
2019-01-28 20:51:58.65,257,-407,252,69,-3.1069,1.9237,0.5267,-76,6788,15060,-0.0046,0.4143,0.9192,24.2623,0.2636
2019-01-28 20:51:58.76,258,-405,273,46,-3.0916,2.084,0.3511,-188,6768,14836,-0.0115,0.4131,0.9055,24.5201,0.6605
2019-01-28 20:51:58.88,259,-423,509,45,-3.229,3.8855,0.3435,-168,6464,14820,-0.0103,0.3945,0.9045,23.5639,0.5953
2019-01-28 20:51:58.99,260,-420,491,45,-3.2061,3.7481,0.3435,-120,6708,14784,-0.0073,0.4094,0.9023,24.4047,0.4235
2019-01-28 20:51:59.10,261,-423,246,56,-3.229,1.8779,0.4275,-204,6740,14824,-0.0125,0.4114,0.9048,24.4477,0.7177
2019-01-28 20:51:59.21,262,-412,298,76,-3.145,2.2748,0.5802,-148,6744,15048,-0.009,0.4116,0.9185,24.1393,0.5142
2019-01-28 20:51:59.33,263,-397,0,53,-3.0305,0.0,0.4046,-184,6684,14816,-0.0112,0.408,0.9043,24.2801,0.6486
2019-01-28 20:51:59.44,264,-409,296,48,-3.1221,2.2595,0.3664,-188,6744,14948,-0.0115,0.4116,0.9124,24.2815,0.6568
2019-01-28 20:51:59.55,265,-419,257,68,-3.1985,1.9618,0.5191,-132,6700,14728,-0.0081,0.4089,0.8989,24.4607,0.4674
2019-01-28 20:51:59.66,266,-429,263,73,-3.2748,2.0076,0.5573,-184,6672,14752,-0.0112,0.4072,0.9004,24.3345,0.6511
2019-01-28 20:51:59.78,267,-407,266,73,-3.1069,2.0305,0.5573,-112,6700,14720,-0.0068,0.4089,0.8984,24.4726,0.3968
2019-01-28 20:51:59.89,268,-402,264,77,-3.0687,2.0153,0.5878,-8,6704,15032,-0.0005,0.4092,0.9175,24.036,0.0278
2019-01-28 20:52:00.00,269,-407,270,58,-3.1069,2.0611,0.4427,-180,6472,14676,-0.011,0.395,0.8958,23.7955,0.643
2019-01-28 20:52:00.11,270,-433,506,82,-3.3053,3.8626,0.626,-56,6732,14620,-0.0034,0.4109,0.8923,24.7243,0.1993
2019-01-28 20:52:00.22,271,-403,265,63,-3.0763,2.0229,0.4809,-416,6696,14752,-0.0254,0.4087,0.9004,24.4049,1.4709
2019-01-28 20:52:00.34,272,-425,279,93,-3.2443,2.1298,0.7099,-156,6672,14688,-0.0095,0.4072,0.8965,24.4286,0.554
2019-01-28 20:52:00.45,273,-403,255,59,-3.0763,1.9466,0.4504,-220,6804,14712,-0.0134,0.4153,0.8979,24.8171,0.7776
2019-01-28 20:52:00.56,274,-413,10,62,-3.1527,0.0763,0.4733,-172,6660,15100,-0.0105,0.4065,0.9216,23.799,0.5971
2019-01-28 20:52:00.67,275,-397,272,61,-3.0305,2.0763,0.4656,-196,6860,14724,-0.012,0.4187,0.8987,24.9792,0.6913
2019-01-28 20:52:00.79,276,-415,267,47,-3.1679,2.0382,0.3588,-148,6688,14720,-0.009,0.4082,0.8984,24.4335,0.5245
2019-01-28 20:52:00.90,277,-427,497,66,-3.2595,3.7939,0.5038,-236,6700,14840,-0.0144,0.4089,0.9058,24.2956,0.8304
2019-01-28 20:52:01.01,278,-415,268,66,-3.1679,2.0458,0.5038,-148,6468,14600,-0.009,0.3948,0.8911,23.8929,0.531
2019-01-28 20:52:01.12,279,-385,303,81,-2.9389,2.313,0.6183,-172,6888,14904,-0.0105,0.4204,0.9097,24.8029,0.6002
2019-01-28 20:52:01.24,280,-412,272,81,-3.145,2.0763,0.6183,-508,6668,14884,-0.031,0.407,0.9084,24.1198,1.7841
2019-01-28 20:52:01.35,281,-414,244,78,-3.1603,1.8626,0.5954,-120,6724,15056,-0.0073,0.4104,0.9189,24.0648,0.417
2019-01-28 20:52:01.46,282,-418,286,78,-3.1908,2.1832,0.5954,-108,6400,14728,-0.0066,0.3906,0.8989,23.4866,0.3853
2019-01-28 20:52:01.57,283,-399,258,72,-3.0458,1.9695,0.5496,-12,6680,14780,-0.0007,0.4077,0.9021,24.3212,0.0424
2019-01-28 20:52:01.69,284,-397,277,64,-3.0305,2.1145,0.4885,-228,6728,14868,-0.0139,0.4106,0.9075,24.345,0.8004
2019-01-28 20:52:01.80,285,-419,270,54,-3.1985,2.0611,0.4122,-208,6592,14848,-0.0127,0.4023,0.9062,23.9375,0.7335
2019-01-28 20:52:01.91,286,-424,280,82,-3.2366,2.1374,0.626,-200,6592,14620,-0.0122,0.4023,0.8923,24.2681,0.7145
2019-01-28 20:52:02.02,287,-438,294,62,-3.3435,2.2443,0.4733,-504,6600,14788,-0.0308,0.4028,0.9026,24.0392,1.7826
2019-01-28 20:52:02.14,288,-418,511,68,-3.1908,3.9008,0.5191,-168,6804,14668,-0.0103,0.4153,0.8953,24.8836,0.5953
2019-01-28 20:52:02.25,289,-377,261,77,-2.8779,1.9924,0.5878,-212,6752,14944,-0.0129,0.4121,0.9121,24.3122,0.7407
2019-01-28 20:52:02.36,290,-417,285,60,-3.1832,2.1756,0.458,-416,6412,14720,-0.0254,0.3914,0.8984,23.5295,1.4842
2019-01-28 20:52:02.47,291,-433,274,51,-3.3053,2.0916,0.3893,-192,6692,14600,-0.0117,0.4084,0.8911,24.6228,0.6849
2019-01-28 20:52:02.59,292,-434,310,53,-3.313,2.3664,0.4046,-76,6712,14848,-0.0046,0.4097,0.9062,24.3249,0.2672
2019-01-28 20:52:02.70,293,-451,282,40,-3.4427,2.1527,0.3053,-24,6612,14720,-0.0015,0.4036,0.8984,24.1889,0.0852
2019-01-28 20:52:02.81,294,-417,262,76,-3.1832,2.0,0.5802,-88,6732,14844,-0.0054,0.4109,0.906,24.3947,0.3093
2019-01-28 20:52:02.92,295,-414,507,55,-3.1603,3.8702,0.4198,-16,6736,14828,-0.001,0.4111,0.905,24.4311,0.0563
2019-01-28 20:52:03.03,296,-408,271,72,-3.1145,2.0687,0.5496,-220,6756,14776,-0.0134,0.4124,0.9019,24.5688,0.7758
2019-01-28 20:52:03.15,297,-416,256,58,-3.1756,1.9542,0.4427,-216,6844,14788,-0.0132,0.4177,0.9026,24.8327,0.7594
2019-01-28 20:52:03.26,298,-408,246,66,-3.1145,1.8779,0.5038,-120,6720,14612,-0.0073,0.4102,0.8918,24.6968,0.4275
2019-01-28 20:52:03.37,299,-420,235,78,-3.2061,1.7939,0.5954,-180,6704,14856,-0.011,0.4092,0.9067,24.2864,0.6327
2019-01-28 20:52:03.48,300,-424,258,79,-3.2366,1.9695,0.6031,-76,6740,14976,-0.0046,0.4114,0.9141,24.23,0.2651
2019-01-28 20:52:03.60,301,-405,248,81,-3.0916,1.8931,0.6183,-68,6908,14728,-0.0042,0.4216,0.8989,25.1282,0.2395
2019-01-28 20:52:03.71,302,-403,248,71,-3.0763,1.8931,0.542,-108,6700,14856,-0.0066,0.4089,0.9067,24.2746,0.3797
2019-01-28 20:52:03.82,303,-394,264,76,-3.0076,2.0153,0.5802,-60,6768,15100,-0.0037,0.4131,0.9216,24.1423,0.2078
2019-01-28 20:52:03.93,304,-406,259,58,-3.0992,1.9771,0.4427,-216,6780,14772,-0.0132,0.4138,0.9016,24.6517,0.7614
2019-01-28 20:52:04.05,305,-425,272,60,-3.2443,2.0763,0.458,-164,6764,14764,-0.01,0.4128,0.9011,24.6131,0.5786
2019-01-28 20:52:04.16,306,-437,266,68,-3.3359,2.0305,0.5191,-144,6820,14704,-0.0088,0.4163,0.8975,24.8817,0.509
2019-01-28 20:52:04.27,307,-425,261,65,-3.2443,1.9924,0.4962,-124,6728,14600,-0.0076,0.4106,0.8911,24.7405,0.4419
2019-01-28 20:52:04.38,308,-449,507,68,-3.4275,3.8702,0.5191,-116,6740,14920,-0.0071,0.4114,0.9106,24.3101,0.406
2019-01-28 20:52:04.50,309,-447,279,71,-3.4122,2.1298,0.542,-24,6764,15012,-0.0015,0.4128,0.9163,24.255,0.0835
2019-01-28 20:52:04.61,310,-421,264,78,-3.2137,2.0153,0.5954,-100,6836,14940,-0.0061,0.4172,0.9119,24.5866,0.3487
2019-01-28 20:52:04.72,311,-424,12,79,-3.2366,0.0916,0.6031,-88,6688,14676,-0.0054,0.4082,0.8958,24.4988,0.3126
2019-01-28 20:52:04.83,312,-438,269,48,-3.3435,2.0534,0.3664,-224,6764,14568,-0.0137,0.4128,0.8892,24.9031,0.799
2019-01-28 20:52:04.94,313,-423,502,70,-3.229,3.8321,0.5344,-152,6776,15068,-0.0093,0.4136,0.9197,24.2121,0.5271
2019-01-28 20:52:05.06,314,-435,3,65,-3.3206,0.0229,0.4962,-164,6692,14676,-0.01,0.4084,0.8958,24.5108,0.5825
2019-01-28 20:52:05.17,315,-436,270,65,-3.3282,2.0611,0.4962,-112,6720,15072,-0.0068,0.4102,0.9199,24.0296,0.3889
2019-01-28 20:52:05.28,316,-397,501,81,-3.0305,3.8244,0.6183,-160,6692,14668,-0.0098,0.4084,0.8953,24.5227,0.5686
2019-01-28 20:52:05.39,317,-437,11,66,-3.3359,0.084,0.5038,-196,6708,14688,-0.012,0.4094,0.8965,24.5442,0.6954
2019-01-28 20:52:05.51,318,-409,253,28,-3.1221,1.9313,0.2137,-272,6680,15028,-0.0166,0.4077,0.9172,23.9618,0.9475
2019-01-28 20:52:05.62,319,-422,270,65,-3.2214,2.0611,0.4962,-88,6692,14724,-0.0054,0.4084,0.8987,24.4412,0.3117
2019-01-28 20:52:05.73,320,-427,3,68,-3.2595,0.0229,0.5191,-128,6796,14916,-0.0078,0.4148,0.9104,24.4941,0.4474
2019-01-28 20:52:05.84,321,-379,257,69,-2.8931,1.9618,0.5267,-92,6860,14908,-0.0056,0.4187,0.9099,24.7094,0.3212
2019-01-28 20:52:05.96,322,-425,244,63,-3.2443,1.8626,0.4809,-112,6756,14724,-0.0068,0.4124,0.8987,24.6471,0.3961
2019-01-28 20:52:06.07,323,-423,282,83,-3.229,2.1527,0.6336,-140,6812,14784,-0.0085,0.4158,0.9023,24.7378,0.4928
2019-01-28 20:52:06.19,324,-396,274,88,-3.0229,2.0916,0.6718,-172,6796,14716,-0.0105,0.4148,0.8982,24.7865,0.6079
2019-01-28 20:52:06.30,325,-416,509,92,-3.1756,3.8855,0.7023,-308,6772,14888,-0.0188,0.4133,0.9087,24.4544,1.0788
2019-01-28 20:52:06.41,326,-414,3,60,-3.1603,0.0229,0.458,-392,6740,14724,-0.0239,0.4114,0.8987,24.5885,1.3867
2019-01-28 20:52:06.52,327,-406,255,74,-3.0992,1.9466,0.5649,-100,6728,14860,-0.0061,0.4106,0.907,24.3586,0.3512
2019-01-28 20:52:06.64,328,-425,271,56,-3.2443,2.0687,0.4275,-112,6748,14804,-0.0068,0.4119,0.9036,24.504,0.3944
2019-01-28 20:52:06.75,329,-404,263,97,-3.084,2.0076,0.7405,-124,6824,14764,-0.0076,0.4165,0.9011,24.8059,0.4368
2019-01-28 20:52:06.86,330,-403,259,73,-3.0763,1.9771,0.5573,-32,6736,14712,-0.002,0.4111,0.8979,24.601,0.1133
2019-01-28 20:52:06.97,331,-439,271,59,-3.3511,2.0687,0.4504,-248,6588,14664,-0.0151,0.4021,0.895,24.1896,0.8838
2019-01-28 20:52:07.08,332,-422,246,53,-3.2214,1.8779,0.4046,-128,6784,14776,-0.0078,0.4141,0.9019,24.6601,0.4511
2019-01-28 20:52:07.20,333,-413,250,85,-3.1527,1.9084,0.6489,-188,6776,15092,-0.0115,0.4136,0.9211,24.1774,0.6511
2019-01-28 20:52:07.31,334,-402,505,77,-3.0687,3.855,0.5878,-208,6756,14728,-0.0127,0.4124,0.8989,24.6396,0.7354
2019-01-28 20:52:07.42,335,-426,249,61,-3.2519,1.9008,0.4656,-44,6420,14864,-0.0027,0.3918,0.9072,23.3602,0.1557
2019-01-28 20:52:07.53,336,-420,290,69,-3.2061,2.2137,0.5267,-168,6704,14668,-0.0103,0.4092,0.8953,24.5613,0.5968
2019-01-28 20:52:07.65,337,-391,273,68,-2.9847,2.084,0.5191,-136,6732,14716,-0.0083,0.4109,0.8982,24.5813,0.4815
2019-01-28 20:52:07.76,338,-407,246,82,-3.1069,1.8779,0.626,-180,6824,14752,-0.011,0.4165,0.9004,24.8228,0.6345
2019-01-28 20:52:07.87,339,-424,234,79,-3.2366,1.7863,0.6031,-496,6720,14624,-0.0303,0.4102,0.8926,24.6672,1.7652
2019-01-28 20:52:07.98,340,-416,267,60,-3.1756,2.0382,0.458,-88,6800,14660,-0.0054,0.415,0.8948,24.8837,0.312
2019-01-28 20:52:08.10,341,-423,281,68,-3.229,2.145,0.5191,-196,6788,14592,-0.012,0.4143,0.8906,24.9452,0.6978
2019-01-28 20:52:08.21,342,-413,263,63,-3.1527,2.0076,0.4809,-256,6672,14672,-0.0156,0.4072,0.8955,24.4501,0.91
2019-01-28 20:52:08.32,343,-439,292,72,-3.3511,2.229,0.5496,-116,6768,14824,-0.0071,0.4131,0.9048,24.5387,0.4078
2019-01-28 20:52:08.43,344,-393,262,67,-3.0,2.0,0.5115,-208,6900,14860,-0.0127,0.4211,0.907,24.9049,0.7274
2019-01-28 20:52:08.55,345,-425,235,53,-3.2443,1.7939,0.4046,-160,6664,15064,-0.0098,0.4067,0.9194,23.8624,0.5565
2019-01-28 20:52:08.66,346,-420,271,69,-3.2061,2.0687,0.5267,-228,6748,14624,-0.0139,0.4119,0.8926,24.7675,0.811
2019-01-28 20:52:08.77,347,-421,10,67,-3.2137,0.0763,0.5115,-28,6772,14628,-0.0017,0.4133,0.8928,24.8416,0.0995
2019-01-28 20:52:08.88,348,-427,235,61,-3.2595,1.7939,0.4656,-208,6824,14840,-0.0127,0.4165,0.9058,24.6926,0.7296
2019-01-28 20:52:09.00,349,-437,268,51,-3.3359,2.0458,0.3893,-192,6776,14836,-0.0117,0.4136,0.9055,24.5456,0.6744
2019-01-28 20:52:09.11,350,-423,255,75,-3.229,1.9466,0.5725,-188,6680,14628,-0.0115,0.4077,0.8928,24.5424,0.6698
2019-01-28 20:52:09.22,351,-410,507,84,-3.1298,3.8702,0.6412,-96,6716,14628,-0.0059,0.4099,0.8928,24.6603,0.3417
2019-01-28 20:52:09.33,352,-435,264,69,-3.3206,2.0153,0.5267,-124,6688,14624,-0.0076,0.4082,0.8926,24.5753,0.4418
2019-01-28 20:52:09.44,353,-426,6,69,-3.2519,0.0458,0.5267,-132,6776,14860,-0.0081,0.4136,0.907,24.5116,0.4631
2019-01-28 20:52:09.56,354,-421,272,55,-3.2137,2.0763,0.4198,-112,6784,14792,-0.0068,0.4141,0.9028,24.6368,0.3943
2019-01-28 20:52:09.67,355,-418,509,65,-3.1908,3.8855,0.4962,-352,6756,14768,-0.0215,0.4124,0.9014,24.5768,1.2417
2019-01-28 20:52:09.78,356,-418,261,62,-3.1908,1.9924,0.4733,-144,6796,15088,-0.0088,0.4148,0.9209,24.247,0.4986
2019-01-28 20:52:09.89,357,-420,2,56,-3.2061,0.0153,0.4275,-124,6748,14780,-0.0076,0.4119,0.9021,24.5389,0.4373
2019-01-28 20:52:10.01,358,-432,510,70,-3.2977,3.8931,0.5344,-248,6808,14880,-0.0151,0.4155,0.9082,24.5824,0.8683
2019-01-28 20:52:10.12,359,-435,262,78,-3.3206,2.0,0.5954,-92,6656,14976,-0.0056,0.4062,0.9141,23.9621,0.3216
2019-01-28 20:52:10.23,360,-387,258,66,-2.9542,1.9695,0.5038,-72,6812,14740,-0.0044,0.4158,0.8997,24.8035,0.2541
2019-01-28 20:52:10.34,361,-394,15,71,-3.0076,0.1145,0.542,-60,6764,14856,-0.0037,0.4128,0.9067,24.4798,0.2106
2019-01-28 20:52:10.46,362,-443,265,73,-3.3817,2.0229,0.5573,-128,6720,14624,-0.0078,0.4102,0.8926,24.6788,0.4557
2019-01-28 20:52:10.57,363,-399,507,69,-3.0458,3.8702,0.5267,-208,6748,14680,-0.0127,0.4119,0.896,24.6848,0.7376
2019-01-28 20:52:10.68,364,-412,257,72,-3.145,1.9618,0.5496,-108,6832,14916,-0.0066,0.417,0.9104,24.6087,0.3772
2019-01-28 20:52:10.80,365,-405,276,47,-3.0916,2.1069,0.3588,-172,6908,15000,-0.0105,0.4216,0.9155,24.7262,0.5967
2019-01-28 20:52:10.91,366,-404,290,65,-3.084,2.2137,0.4962,-4,6708,14748,-0.0002,0.4094,0.9001,24.458,0.0141
2019-01-28 20:52:11.02,367,-432,267,52,-3.2977,2.0382,0.3969,-264,6796,14800,-0.0161,0.4148,0.9033,24.6606,0.9287
2019-01-28 20:52:11.13,368,-431,253,60,-3.2901,1.9313,0.458,-160,6736,14880,-0.0098,0.4111,0.9082,24.3545,0.5612
2019-01-28 20:52:11.25,369,-432,4,73,-3.2977,0.0305,0.5573,-508,6728,14772,-0.031,0.4106,0.9016,24.4744,1.7926
2019-01-28 20:52:11.36,370,-394,509,78,-3.0076,3.8855,0.5954,-140,6744,14860,-0.0085,0.4116,0.907,24.4093,0.4915
2019-01-28 20:52:11.47,371,-406,16,60,-3.0992,0.1221,0.458,-136,6744,14900,-0.0083,0.4116,0.9094,24.3514,0.4764
2019-01-28 20:52:11.59,372,-413,268,80,-3.1527,2.0458,0.6107,-212,6724,14604,-0.0129,0.4104,0.8914,24.7201,0.7555
2019-01-28 20:52:11.70,373,-403,2,56,-3.0763,0.0153,0.4275,-156,6812,14928,-0.0095,0.4158,0.9111,24.5272,0.5447
2019-01-28 20:52:11.81,374,-392,266,70,-2.9924,2.0305,0.5344,-212,6748,14828,-0.0129,0.4119,0.905,24.4674,0.7456
2019-01-28 20:52:11.93,375,-406,5,41,-3.0992,0.0382,0.313,-136,6788,14704,-0.0083,0.4143,0.8975,24.7791,0.4811
2019-01-28 20:52:12.04,376,-405,241,68,-3.0916,1.8397,0.5191,-256,6740,14752,-0.0156,0.4114,0.9004,24.5518,0.9043
2019-01-28 20:52:12.15,377,-409,273,59,-3.1221,2.084,0.4504,-172,6724,14760,-0.0105,0.4104,0.9009,24.4904,0.6076
2019-01-28 20:52:12.27,378,-441,238,43,-3.3664,1.8168,0.3282,-376,6724,14688,-0.0229,0.4104,0.8965,24.5907,1.3334
2019-01-28 20:52:12.38,379,-432,495,69,-3.2977,3.7786,0.5267,-108,6712,14812,-0.0066,0.4097,0.9041,24.3769,0.3805
2019-01-28 20:52:12.49,380,-446,258,89,-3.4046,1.9695,0.6794,-180,6780,14744,-0.011,0.4138,0.8999,24.6936,0.6355
2019-01-28 20:52:12.61,381,-426,269,70,-3.2519,2.0534,0.5344,-164,6672,14940,-0.01,0.4072,0.9119,24.0636,0.5743
2019-01-28 20:52:12.72,382,-421,507,72,-3.2137,3.8702,0.5496,-116,6720,14908,-0.0071,0.4102,0.9099,24.2635,0.4064
2019-01-28 20:52:12.83,383,-374,260,79,-2.855,1.9847,0.6031,-216,6764,14788,-0.0132,0.4128,0.9026,24.5769,0.761
2019-01-28 20:52:12.94,384,-419,247,71,-3.1985,1.8855,0.542,-148,6700,14884,-0.009,0.4089,0.9084,24.2337,0.5195
2019-01-28 20:52:13.06,385,-411,508,73,-3.1374,3.8779,0.5573,-184,6816,15076,-0.0112,0.416,0.9202,24.3266,0.6372
2019-01-28 20:52:13.17,386,-451,236,70,-3.4427,1.8015,0.5344,-180,6796,14820,-0.011,0.4148,0.9045,24.6331,0.6325
2019-01-28 20:52:13.28,387,-415,268,62,-3.1679,2.0458,0.4733,-108,6752,14744,-0.0066,0.4121,0.8999,24.6048,0.3816
2019-01-28 20:52:13.40,388,-423,276,59,-3.229,2.1069,0.4504,-44,6764,14700,-0.0027,0.4128,0.8972,24.7088,0.1558
2019-01-28 20:52:13.51,389,-394,5,67,-3.0076,0.0382,0.5115,-8,6692,14716,-0.0005,0.4084,0.8982,24.4533,0.0284
2019-01-28 20:52:13.62,390,-409,273,57,-3.1221,2.084,0.4351,-132,6692,14812,-0.0081,0.4084,0.9041,24.3124,0.4653
2019-01-28 20:52:13.74,391,-429,3,76,-3.2748,0.0229,0.5802,-128,6756,15096,-0.0078,0.4124,0.9214,24.1095,0.4434
2019-01-28 20:52:13.85,392,-430,11,71,-3.2824,0.084,0.542,-76,6624,14612,-0.0046,0.4043,0.8918,24.3857,0.2714
2019-01-28 20:52:13.96,393,-415,277,64,-3.1679,2.1145,0.4885,-188,6700,14828,-0.0115,0.4089,0.905,24.314,0.662
2019-01-28 20:52:14.08,394,-407,278,67,-3.1069,2.1221,0.5115,-48,6688,14752,-0.0029,0.4082,0.9004,24.3876,0.1698
2019-01-28 20:52:14.19,395,-417,274,76,-3.1832,2.0916,0.5802,-92,6692,15052,-0.0056,0.4084,0.9187,23.9692,0.32
2019-01-28 20:52:14.30,396,-401,239,67,-3.0611,1.8244,0.5115,-164,6468,14668,-0.01,0.3948,0.8953,23.7942,0.5861
2019-01-28 20:52:14.41,397,-403,7,78,-3.0763,0.0534,0.5954,-92,6716,14824,-0.0056,0.4099,0.9048,24.3724,0.3239
2019-01-28 20:52:14.53,398,-394,258,47,-3.0076,1.9695,0.3588,-108,6732,14676,-0.0066,0.4109,0.8958,24.6407,0.3832
2019-01-28 20:52:14.64,399,-423,276,44,-3.229,2.1069,0.3359,-264,6744,14700,-0.0161,0.4116,0.8972,24.641,0.9352
2019-01-28 20:52:14.75,400,-436,247,79,-3.3282,1.8855,0.6031,-212,6720,14852,-0.0129,0.4102,0.9065,24.3429,0.7451
2019-01-28 20:52:14.87,401,-451,323,58,-3.4427,2.4656,0.4427,-96,6748,14680,-0.0059,0.4119,0.896,24.6865,0.3404
2019-01-28 20:52:14.98,402,-441,264,25,-3.3664,2.0153,0.1908,-236,6720,14356,-0.0144,0.4102,0.8762,25.0812,0.853
2019-01-28 20:52:15.09,403,-447,278,58,-3.4122,2.1221,0.4427,-268,6784,15076,-0.0164,0.4141,0.9202,24.2237,0.9287
2019-01-28 20:52:15.21,404,-410,276,55,-3.1298,2.1069,0.4198,-196,6660,14732,-0.012,0.4065,0.8992,24.3247,0.6946
2019-01-28 20:52:15.32,405,-404,229,86,-3.084,1.7481,0.6565,-256,6740,14692,-0.0156,0.4114,0.8967,24.6401,0.9073
2019-01-28 20:52:15.43,406,-450,274,65,-3.4351,2.0916,0.4962,-156,6732,14636,-0.0095,0.4109,0.8933,24.6994,0.5548
2019-01-28 20:52:15.55,407,-435,272,64,-3.3206,2.0763,0.4885,-108,6764,14740,-0.0066,0.4128,0.8997,24.6492,0.3815
2019-01-28 20:52:15.66,408,-462,219,72,-3.5267,1.6718,0.5496,-184,6560,14696,-0.0112,0.4004,0.897,24.0534,0.655
2019-01-28 20:52:15.77,409,-428,268,70,-3.2672,2.0458,0.5344,-192,6640,14772,-0.0117,0.4053,0.9016,24.2021,0.6792
2019-01-28 20:52:15.89,410,-431,294,76,-3.2901,2.2443,0.5802,-128,6712,15044,-0.0078,0.4097,0.9182,24.0436,0.4452
2019-01-28 20:52:16.00,411,-438,289,73,-3.3435,2.2061,0.5573,-332,6676,15020,-0.0203,0.4075,0.9167,23.9587,1.1571
2019-01-28 20:52:16.11,412,-412,294,48,-3.145,2.2443,0.3664,-64,6400,14756,-0.0039,0.3906,0.9006,23.4472,0.228
2019-01-28 20:52:16.23,413,-446,174,84,-3.4046,1.3282,0.6412,-220,6428,14964,-0.0134,0.3923,0.9133,23.2444,0.7739
2019-01-28 20:52:16.34,414,-404,272,63,-3.084,2.0763,0.4809,-396,6740,14776,-0.0242,0.4114,0.9019,24.5121,1.3968
2019-01-28 20:52:16.45,415,-433,284,42,-3.3053,2.1679,0.3206,-136,6720,14616,-0.0083,0.4102,0.8921,24.6906,0.4844
2019-01-28 20:52:16.56,416,-427,288,48,-3.2595,2.1985,0.3664,-112,6744,14788,-0.0068,0.4116,0.9026,24.5145,0.3948
2019-01-28 20:52:16.68,417,-629,606,-84,-4.8015,4.626,-0.6412,-444,6400,13860,-0.0271,0.3906,0.8459,24.7744,1.6659
2019-01-28 20:52:16.79,418,-445,217,39,-3.3969,1.6565,0.2977,-112,6732,15296,-0.0068,0.4109,0.9336,23.7545,0.384
2019-01-28 20:52:16.90,419,-388,300,58,-2.9618,2.2901,0.4427,-352,6620,14528,-0.0215,0.4041,0.8867,24.4911,1.2631
2019-01-28 20:52:17.02,420,-460,229,88,-3.5115,1.7481,0.6718,-56,6416,14780,-0.0034,0.3916,0.9021,23.4655,0.1991
2019-01-28 20:52:17.13,421,-391,303,67,-2.9847,2.313,0.5115,-204,6872,14732,-0.0125,0.4194,0.8992,25.0054,0.719
2019-01-28 20:52:17.24,422,-458,230,79,-3.4962,1.7557,0.6031,-168,6512,14688,-0.0103,0.3975,0.8965,23.909,0.5991
2019-01-28 20:52:17.36,423,-434,294,30,-3.313,2.2443,0.229,-312,6756,14704,-0.019,0.4124,0.8975,24.6723,1.1046
2019-01-28 20:52:17.47,424,-408,265,30,-3.1145,2.0229,0.229,-132,6688,14840,-0.0081,0.4082,0.9058,24.259,0.4646
2019-01-28 20:52:17.58,425,-425,269,47,-3.2443,2.0534,0.3588,-160,6836,14624,-0.0098,0.4172,0.8926,25.0525,0.5679
2019-01-28 20:52:17.70,426,-401,263,67,-3.0611,2.0076,0.5115,-224,7016,14824,-0.0137,0.4282,0.9048,25.325,0.7825
2019-01-28 20:52:17.81,427,-419,258,111,-3.1985,1.9695,0.8473,-24,6664,14808,-0.0015,0.4067,0.9038,24.229,0.0847
2019-01-28 20:52:17.92,428,-362,246,99,-2.7634,1.8779,0.7557,-164,6828,14872,-0.01,0.4167,0.9077,24.6594,0.5742
2019-01-28 20:52:18.04,429,-409,201,68,-3.1221,1.5344,0.5191,-236,6684,14856,-0.0144,0.408,0.9067,24.2212,0.83
2019-01-28 20:52:18.15,430,-440,281,67,-3.3588,2.145,0.5115,-188,6856,14768,-0.0115,0.4185,0.9014,24.9012,0.6615
2019-01-28 20:52:18.26,431,-422,253,77,-3.2214,1.9313,0.5878,-192,6764,14672,-0.0117,0.4128,0.8955,24.7485,0.6809
2019-01-28 20:52:18.37,432,-426,266,68,-3.2519,2.0305,0.5191,-32,6828,14876,-0.002,0.4167,0.908,24.6548,0.112
2019-01-28 20:52:18.49,433,-421,258,77,-3.2137,1.9695,0.5878,-132,6768,14600,-0.0081,0.4131,0.8911,24.8697,0.47
2019-01-28 20:52:18.60,434,-430,5,61,-3.2824,0.0382,0.4656,-172,6712,14784,-0.0105,0.4097,0.9023,24.4168,0.6069
2019-01-28 20:52:18.71,435,-417,268,79,-3.1832,2.0458,0.6031,-120,6704,14976,-0.0073,0.4092,0.9141,24.115,0.419
2019-01-28 20:52:18.83,436,-436,276,83,-3.3282,2.1069,0.6336,-180,6696,14608,-0.011,0.4087,0.8916,24.6241,0.6418
2019-01-28 20:52:18.94,437,-420,1,100,-3.2061,0.0076,0.7634,-164,6764,14716,-0.01,0.4128,0.8982,24.6839,0.5802
2019-01-28 20:52:19.05,438,-427,263,60,-3.2595,2.0076,0.458,-172,6688,14756,-0.0105,0.4082,0.9006,24.3804,0.6083
2019-01-28 20:52:19.17,439,-421,250,55,-3.2137,1.9084,0.4198,-76,6888,14716,-0.0046,0.4204,0.8982,25.0822,0.268
2019-01-28 20:52:19.28,440,-409,10,79,-3.1221,0.0763,0.6031,-16,6728,14800,-0.001,0.4106,0.9033,24.4463,0.0564
2019-01-28 20:52:19.39,441,-416,274,67,-3.1756,2.0916,0.5115,-448,6716,14828,-0.0273,0.4099,0.905,24.3572,1.5765
2019-01-28 20:52:19.51,442,-415,274,75,-3.1679,2.0916,0.5725,-160,6740,14808,-0.0098,0.4114,0.9038,24.4718,0.5634
2019-01-28 20:52:19.62,443,-402,253,67,-3.0687,1.9313,0.5115,-232,6744,14708,-0.0142,0.4116,0.8977,24.63,0.8215
2019-01-28 20:52:19.73,444,-420,239,87,-3.2061,1.8244,0.6641,-248,6640,14816,-0.0151,0.4053,0.9043,24.1372,0.8751
2019-01-28 20:52:19.85,445,-412,267,64,-3.145,2.0382,0.4885,-80,6704,14832,-0.0049,0.4092,0.9053,24.3225,0.2816
2019-01-28 20:52:19.96,446,-426,264,73,-3.2519,2.0153,0.5573,-104,6748,14868,-0.0063,0.4119,0.9075,24.4109,0.3649
2019-01-28 20:52:20.07,447,-433,510,75,-3.3053,3.8931,0.5725,-4,6448,14784,-0.0002,0.3936,0.9023,23.5643,0.0142
2019-01-28 20:52:20.18,448,-401,259,83,-3.0611,1.9771,0.6336,-88,6764,14820,-0.0054,0.4128,0.9045,24.5321,0.3095
2019-01-28 20:52:20.30,449,-405,265,72,-3.0916,2.0229,0.5496,-48,6768,14684,-0.0029,0.4131,0.8962,24.7453,0.1701
2019-01-28 20:52:20.41,450,-405,236,85,-3.0916,1.8015,0.6489,-248,6712,14704,-0.0151,0.4097,0.8975,24.5324,0.879
2019-01-28 20:52:20.52,451,-417,258,83,-3.1832,1.9695,0.6336,-316,6756,14772,-0.0193,0.4124,0.9016,24.5721,1.1145
2019-01-28 20:52:20.64,452,-435,270,58,-3.3206,2.0611,0.4427,-124,6732,14636,-0.0076,0.4109,0.8933,24.6998,0.441
2019-01-28 20:52:20.75,453,-432,510,57,-3.2977,3.8931,0.4351,-100,6760,14688,-0.0061,0.4126,0.8965,24.7133,0.3544
2019-01-28 20:52:20.86,454,-413,259,86,-3.1527,1.9771,0.6565,-480,6724,14688,-0.0293,0.4104,0.8965,24.5862,1.702
2019-01-28 20:52:20.97,455,-412,256,68,-3.145,1.9542,0.5191,-452,6780,14804,-0.0276,0.4138,0.9036,24.5969,1.5901
2019-01-28 20:52:21.09,456,-429,259,56,-3.2748,1.9771,0.4275,-180,6836,14760,-0.011,0.4172,0.9009,24.8493,0.634
2019-01-28 20:52:21.20,457,-395,507,73,-3.0153,3.8702,0.5573,-104,6724,14748,-0.0063,0.4104,0.9001,24.5089,0.3676
2019-01-28 20:52:21.31,458,-414,505,72,-3.1603,3.855,0.5496,-156,6812,15052,-0.0095,0.4158,0.9187,24.3487,0.541
2019-01-28 20:52:21.42,459,-445,254,61,-3.3969,1.9389,0.4656,-108,6788,14804,-0.0066,0.4143,0.9036,24.632,0.3799
2019-01-28 20:52:21.54,460,-420,262,64,-3.2061,2.0,0.4885,-276,6428,14764,-0.0168,0.3923,0.9011,23.5238,0.982
2019-01-28 20:52:21.65,461,-398,251,53,-3.0382,1.916,0.4046,-144,6676,14648,-0.0088,0.4075,0.894,24.5006,0.5125
2019-01-28 20:52:21.76,462,-412,272,73,-3.145,2.0763,0.5573,-172,6724,14676,-0.0105,0.4104,0.8958,24.614,0.6104
2019-01-28 20:52:21.87,463,-428,4,72,-3.2672,0.0305,0.5496,-212,6716,14784,-0.0129,0.4099,0.9023,24.4289,0.748
2019-01-28 20:52:21.99,464,-443,261,59,-3.3817,1.9924,0.4504,-176,6828,14692,-0.0107,0.4167,0.8967,24.9247,0.6224
2019-01-28 20:52:22.10,465,-415,508,54,-3.1679,3.8779,0.4122,-124,6744,14612,-0.0076,0.4116,0.8918,24.7744,0.4415
2019-01-28 20:52:22.21,466,-405,248,66,-3.0916,1.8931,0.5038,-152,6684,14840,-0.0093,0.408,0.9058,24.2459,0.5351
2019-01-28 20:52:22.32,467,-404,266,86,-3.084,2.0305,0.6565,-144,6732,14736,-0.0088,0.4109,0.8994,24.5518,0.5093
2019-01-28 20:52:22.44,468,-443,242,71,-3.3817,1.8473,0.542,-172,6752,14604,-0.0105,0.4121,0.8914,24.8114,0.6125
2019-01-28 20:52:22.55,469,-389,250,62,-2.9695,1.9084,0.4733,-160,6748,14764,-0.0098,0.4119,0.9011,24.5619,0.5647
2019-01-28 20:52:22.66,470,-416,275,64,-3.1756,2.0992,0.4885,-108,6816,14780,-0.0066,0.416,0.9021,24.7569,0.3802
2019-01-28 20:52:22.77,471,-424,261,70,-3.2366,1.9924,0.5344,-128,6768,14672,-0.0078,0.4131,0.8955,24.7624,0.4539
2019-01-28 20:52:22.88,472,-412,508,74,-3.145,3.8779,0.5649,-200,6744,14732,-0.0122,0.4116,0.8992,24.5953,0.7072
2019-01-28 20:52:23.00,473,-416,264,71,-3.1756,2.0153,0.542,-184,6716,14776,-0.0112,0.4099,0.9019,24.4411,0.6495
2019-01-28 20:52:23.11,474,-403,266,56,-3.0763,2.0305,0.4275,-248,6772,15088,-0.0151,0.4133,0.9209,24.1693,0.8591
2019-01-28 20:52:23.22,475,-425,507,61,-3.2443,3.8702,0.4656,-216,6732,14808,-0.0132,0.4109,0.9038,24.4452,0.7608
2019-01-28 20:52:23.33,476,-428,267,77,-3.2672,2.0382,0.5878,-212,6708,14816,-0.0129,0.4094,0.9043,24.3566,0.7468
2019-01-28 20:52:23.45,477,-431,276,90,-3.2901,2.1069,0.687,-8,6720,14696,-0.0005,0.4102,0.897,24.5731,0.0284
2019-01-28 20:52:23.56,478,-404,257,62,-3.084,1.9618,0.4733,-64,6764,14676,-0.0039,0.4128,0.8958,24.7442,0.2269
2019-01-28 20:52:23.67,479,-432,270,64,-3.2977,2.0611,0.4885,-192,6744,14732,-0.0117,0.4116,0.8992,24.5955,0.6789
2019-01-28 20:52:23.78,480,-423,262,55,-3.229,2.0,0.4198,-4,6788,14736,-0.0002,0.4143,0.8994,24.7327,0.0141
2019-01-28 20:52:23.90,481,-418,244,76,-3.1908,1.8626,0.5802,-164,6800,14776,-0.01,0.415,0.9019,24.7108,0.5777
2019-01-28 20:52:24.01,482,-416,266,70,-3.1756,2.0305,0.5344,-176,6672,14796,-0.0107,0.4072,0.9031,24.2707,0.6213
2019-01-28 20:52:24.12,483,-397,4,67,-3.0305,0.0305,0.5115,-112,6884,14604,-0.0068,0.4202,0.8914,25.2375,0.3975
2019-01-28 20:52:24.23,484,-407,509,69,-3.1069,3.8855,0.5267,-148,6772,14860,-0.009,0.4133,0.907,24.4986,0.5193
2019-01-28 20:52:24.35,485,-414,496,74,-3.1603,3.7863,0.5649,-228,6792,14592,-0.0139,0.4146,0.8906,24.9574,0.8116
2019-01-28 20:52:24.46,486,-424,505,65,-3.2366,3.855,0.4962,-212,6672,14776,-0.0129,0.4072,0.9019,24.299,0.7492
2019-01-28 20:52:24.57,487,-403,276,87,-3.0763,2.1069,0.6641,-188,6796,14752,-0.0115,0.4148,0.9004,24.733,0.6632
2019-01-28 20:52:24.68,488,-396,249,76,-3.0229,1.9008,0.5802,-140,6700,14720,-0.0085,0.4089,0.8984,24.4723,0.496
2019-01-28 20:52:24.80,489,-435,263,77,-3.3206,2.0076,0.5878,-136,6692,14952,-0.0083,0.4084,0.9126,24.1108,0.4757
2019-01-28 20:52:24.91,490,-401,508,48,-3.0611,3.8779,0.3664,-52,6744,14836,-0.0032,0.4116,0.9055,24.445,0.1828
2019-01-28 20:52:25.02,491,-397,264,50,-3.0305,2.0153,0.3817,-276,6708,14752,-0.0168,0.4094,0.9004,24.4484,0.9757
2019-01-28 20:52:25.13,492,-429,238,75,-3.2748,1.8168,0.5725,-92,6768,14760,-0.0056,0.4131,0.9009,24.6328,0.3246
2019-01-28 20:52:25.25,493,-406,249,69,-3.0992,1.9008,0.5267,-112,6656,14840,-0.0068,0.4062,0.9058,24.1565,0.3945
2019-01-28 20:52:25.36,494,-423,256,54,-3.229,1.9542,0.4122,-16,6744,14812,-0.001,0.4116,0.9041,24.4801,0.0563
2019-01-28 20:52:25.47,495,-424,274,58,-3.2366,2.0916,0.4427,-124,6784,14732,-0.0076,0.4141,0.8992,24.725,0.438
2019-01-28 20:52:25.58,496,-406,254,65,-3.0992,1.9389,0.4962,-20,6760,14720,-0.0012,0.4126,0.8984,24.6664,0.0707
2019-01-28 20:52:25.70,497,-411,275,87,-3.1374,2.0992,0.6641,-108,6832,14736,-0.0066,0.417,0.8994,24.8731,0.381
2019-01-28 20:52:25.81,498,-426,278,82,-3.2519,2.1221,0.626,-112,6732,14796,-0.0068,0.4109,0.9031,24.4643,0.3948
2019-01-28 20:52:25.92,499,-402,3,73,-3.0687,0.0229,0.5573,-184,6780,14640,-0.0112,0.4138,0.8936,24.8478,0.6534
2019-01-28 20:52:26.03,500,-413,502,70,-3.1527,3.8321,0.5344,-252,6804,15076,-0.0154,0.4153,0.9202,24.2873,0.8729
2019-01-28 20:52:26.14,501,-416,268,75,-3.1756,2.0458,0.5725,-284,6788,14776,-0.0173,0.4143,0.9019,24.6697,1.0006
2019-01-28 20:52:26.26,502,-392,256,72,-2.9924,1.9542,0.5496,-60,6676,14776,-0.0037,0.4075,0.9019,24.3139,0.212
2019-01-28 20:52:26.37,503,-443,509,57,-3.3817,3.8855,0.4351,-168,6704,15064,-0.0103,0.4092,0.9194,23.9894,0.5838
2019-01-28 20:52:26.48,504,-426,282,54,-3.2519,2.1527,0.4122,-140,6720,14772,-0.0085,0.4102,0.9016,24.4605,0.4943
2019-01-28 20:52:26.59,505,-428,278,58,-3.2672,2.1221,0.4427,-152,6432,14640,-0.0093,0.3926,0.8936,23.7169,0.5446
2019-01-28 20:52:26.71,506,-446,243,87,-3.4046,1.855,0.6641,-124,6732,15068,-0.0076,0.4109,0.9197,24.0732,0.4305
2019-01-28 20:52:26.82,507,-418,276,69,-3.1908,2.1069,0.5267,-196,6756,14664,-0.012,0.4124,0.895,24.7345,0.6955
2019-01-28 20:52:26.93,508,-421,283,84,-3.2137,2.1603,0.6412,-144,6488,14812,-0.0088,0.396,0.9041,23.6535,0.5102
2019-01-28 20:52:27.04,509,-427,274,80,-3.2595,2.0916,0.6107,-236,6768,14684,-0.0144,0.4131,0.8962,24.7426,0.8362
2019-01-28 20:52:27.16,510,-454,281,56,-3.4656,2.145,0.4275,-208,6856,14852,-0.0127,0.4185,0.9065,24.7769,0.7285
2019-01-28 20:52:27.27,511,-431,285,52,-3.2901,2.1756,0.3969,-176,6644,14704,-0.0107,0.4055,0.8975,24.3143,0.6249
2019-01-28 20:52:27.38,512,-411,299,67,-3.1374,2.2824,0.5115,-128,6720,14696,-0.0078,0.4102,0.897,24.5722,0.4538
2019-01-28 20:52:27.49,513,-406,6,77,-3.0992,0.0458,0.5878,-204,6716,14900,-0.0125,0.4099,0.9094,24.2609,0.7151
2019-01-28 20:52:27.61,514,-444,253,79,-3.3893,1.9313,0.6031,-108,6776,14860,-0.0066,0.4136,0.907,24.5119,0.3789
2019-01-28 20:52:27.72,515,-426,2,61,-3.2519,0.0153,0.4656,-208,6460,14816,-0.0127,0.3943,0.9043,23.5559,0.7373
2019-01-28 20:52:27.83,516,-408,274,85,-3.1145,2.0916,0.6489,-176,6696,14764,-0.0107,0.4087,0.9011,24.3945,0.622
2019-01-28 20:52:27.94,517,-421,226,76,-3.2137,1.7252,0.5802,-196,6704,14700,-0.012,0.4092,0.8972,24.5136,0.695
2019-01-28 20:52:28.06,518,-432,262,68,-3.2977,2.0,0.5191,-64,6712,14908,-0.0039,0.4097,0.9099,24.2384,0.2243
2019-01-28 20:52:28.17,519,-411,257,76,-3.1374,1.9618,0.5802,-80,6808,15076,-0.0049,0.4155,0.9202,24.3026,0.2771
2019-01-28 20:52:28.28,520,-405,506,67,-3.0916,3.8626,0.5115,-36,6760,14796,-0.0022,0.4126,0.9031,24.5547,0.1268
2019-01-28 20:52:28.39,521,-391,9,74,-2.9847,0.0687,0.5649,-132,6680,14784,-0.0081,0.4077,0.9023,24.3145,0.4662
2019-01-28 20:52:28.51,522,-404,251,78,-3.084,1.916,0.5954,-8,6756,14764,-0.0005,0.4124,0.9011,24.5888,0.0282
2019-01-28 20:52:28.62,523,-393,243,57,-3.0,1.855,0.4351,-128,6748,14604,-0.0078,0.4119,0.8914,24.7992,0.4559
2019-01-28 20:52:28.73,524,-409,237,84,-3.1221,1.8092,0.6412,-208,6668,14716,-0.0127,0.407,0.8982,24.3737,0.7376
2019-01-28 20:52:28.84,525,-449,272,71,-3.4275,2.0763,0.542,-76,6800,14672,-0.0046,0.415,0.8955,24.8659,0.2693
2019-01-28 20:52:28.95,526,-429,241,61,-3.2748,1.8397,0.4656,-112,6820,14744,-0.0068,0.4163,0.8999,24.8228,0.395
2019-01-28 20:52:29.07,527,-413,507,84,-3.1527,3.8702,0.6412,-272,6548,14804,-0.0166,0.3997,0.9036,23.8568,0.9627
2019-01-28 20:52:29.18,528,-417,280,62,-3.1832,2.1374,0.4733,-100,6704,14628,-0.0061,0.4092,0.8928,24.6214,0.3561
2019-01-28 20:52:29.29,529,-415,253,45,-3.1679,1.9313,0.3435,-456,6700,14792,-0.0278,0.4089,0.9028,24.3578,1.6085
2019-01-28 20:52:29.40,530,-411,247,91,-3.1374,1.8855,0.6947,-16,6816,14752,-0.001,0.416,0.9004,24.7988,0.0564
2019-01-28 20:52:29.52,531,-407,254,61,-3.1069,1.9389,0.4656,104,6796,15064,0.0063,0.4148,0.9194,24.2816,-0.3606
2019-01-28 20:52:29.63,532,-416,250,55,-3.1756,1.9084,0.4198,-120,6408,14700,-0.0073,0.3911,0.8972,23.5526,0.4287
2019-01-28 20:52:29.74,533,-417,257,56,-3.1832,1.9618,0.4275,-132,6792,14812,-0.0081,0.4146,0.9041,24.6328,0.4641
2019-01-28 20:52:29.85,534,-408,261,67,-3.1145,1.9924,0.5115,-128,6676,14804,-0.0078,0.4075,0.9036,24.2726,0.4516
2019-01-28 20:52:29.97,535,-442,260,73,-3.374,1.9847,0.5573,-100,6804,14772,-0.0061,0.4153,0.9016,24.7304,0.3523
2019-01-28 20:52:30.08,536,-414,508,83,-3.1603,3.8779,0.6336,-4,6732,14824,-0.0002,0.4109,0.9048,24.4241,0.0141
2019-01-28 20:52:30.19,537,-431,270,55,-3.2901,2.0611,0.4198,-84,6692,15100,-0.0051,0.4084,0.9216,23.9016,0.2914
2019-01-28 20:52:30.31,538,-396,266,61,-3.0229,2.0305,0.4656,-116,6676,15044,-0.0071,0.4075,0.9182,23.9293,0.4038
2019-01-28 20:52:30.42,539,-387,249,62,-2.9542,1.9008,0.4733,-108,6760,14892,-0.0066,0.4126,0.9089,24.4144,0.3784
2019-01-28 20:52:30.53,540,-417,258,66,-3.1832,1.9695,0.5038,-504,6832,14808,-0.0308,0.417,0.9038,24.7547,1.7702
2019-01-28 20:52:30.64,541,-397,14,63,-3.0305,0.1069,0.4809,-164,6784,14864,-0.01,0.4141,0.9072,24.5309,0.5751
2019-01-28 20:52:30.76,542,-426,277,64,-3.2519,2.1145,0.4885,-152,6672,15100,-0.0093,0.4072,0.9216,23.8374,0.5275
2019-01-28 20:52:30.87,543,-413,264,64,-3.1527,2.0153,0.4885,-184,6764,14840,-0.0112,0.4128,0.9058,24.5016,0.6464
2019-01-28 20:52:30.99,544,-404,508,64,-3.084,3.8779,0.4885,-224,6728,14780,-0.0137,0.4106,0.9021,24.473,0.7903
2019-01-28 20:52:31.10,545,-420,262,74,-3.2061,2.0,0.5649,-168,6676,15036,-0.0103,0.4075,0.9177,23.9399,0.5851
2019-01-28 20:52:31.21,546,-406,511,84,-3.0992,3.9008,0.6412,-28,6716,14868,-0.0017,0.4099,0.9075,24.3091,0.0983
2019-01-28 20:52:31.32,547,-402,254,65,-3.0687,1.9389,0.4962,-216,6756,14796,-0.0132,0.4124,0.9031,24.5396,0.7608
2019-01-28 20:52:31.44,548,-403,276,74,-3.0763,2.1069,0.5649,-224,6736,14624,-0.0137,0.4111,0.8926,24.7288,0.7971
2019-01-28 20:52:31.55,549,-413,275,75,-3.1527,2.0992,0.5725,-92,6736,14656,-0.0056,0.4111,0.8945,24.6834,0.3268
2019-01-28 20:52:31.66,550,-427,262,75,-3.2595,2.0,0.5725,-104,6872,14944,-0.0063,0.4194,0.9121,24.6948,0.3623
2019-01-28 20:52:31.78,551,-394,273,57,-3.0076,2.084,0.4351,-248,6900,14744,-0.0151,0.4211,0.8999,25.0759,0.8728
2019-01-28 20:52:31.89,552,-434,271,73,-3.313,2.0687,0.5573,-204,6808,14908,-0.0125,0.4155,0.9099,24.5426,0.7131
2019-01-28 20:52:32.00,553,-426,243,48,-3.2519,1.855,0.3664,-116,6744,14980,-0.0071,0.4116,0.9143,24.2366,0.4046
2019-01-28 20:52:32.12,554,-432,271,79,-3.2977,2.0687,0.6031,-136,6736,15008,-0.0083,0.4111,0.916,24.171,0.4737
2019-01-28 20:52:32.23,555,-429,262,72,-3.2748,2.0,0.5496,-136,6456,15044,-0.0083,0.394,0.9182,23.2253,0.476
2019-01-28 20:52:32.34,556,-422,261,66,-3.2214,1.9924,0.5038,-72,6672,14760,-0.0044,0.4072,0.9009,24.3243,0.2547
2019-01-28 20:52:32.45,557,-404,258,61,-3.084,1.9695,0.4656,-72,6756,14720,-0.0044,0.4124,0.8984,24.6533,0.2547
2019-01-28 20:52:32.57,558,-428,279,75,-3.2672,2.1298,0.5725,-88,6840,14980,-0.0054,0.4175,0.9143,24.5415,0.3062
2019-01-28 20:52:32.68,559,-417,259,82,-3.1832,1.9771,0.626,-152,6784,14644,-0.0093,0.4141,0.8938,24.8553,0.5396
2019-01-28 20:52:32.79,560,-421,266,86,-3.2137,2.0305,0.6565,-88,6856,14832,-0.0054,0.4185,0.9053,24.8081,0.3086
2019-01-28 20:52:32.91,561,-420,274,62,-3.2061,2.0916,0.4733,-252,6768,14760,-0.0154,0.4131,0.9009,24.63,0.8891
2019-01-28 20:52:33.02,562,-423,267,62,-3.229,2.0382,0.4733,-144,6764,14792,-0.0088,0.4128,0.9028,24.5724,0.5072
2019-01-28 20:52:33.13,563,-415,10,62,-3.1679,0.0763,0.4733,-136,6748,14604,-0.0083,0.4119,0.8914,24.7991,0.4843
2019-01-28 20:52:33.25,564,-432,505,85,-3.2977,3.855,0.6489,-248,6836,14752,-0.0151,0.4172,0.9004,24.8597,0.8739
2019-01-28 20:52:33.36,565,-394,270,68,-3.0076,2.0611,0.5191,-16,6700,15084,-0.001,0.4089,0.9207,23.9498,0.0555
2019-01-28 20:52:33.47,566,-422,274,75,-3.2214,2.0916,0.5725,-156,6848,14808,-0.0095,0.418,0.9038,24.8171,0.5478
2019-01-28 20:52:33.58,567,-406,509,70,-3.0992,3.8855,0.5344,-92,6748,14788,-0.0056,0.4119,0.9026,24.5276,0.3243
2019-01-28 20:52:33.69,568,-417,273,64,-3.1832,2.084,0.4885,-172,6784,14812,-0.0105,0.4141,0.9041,24.6066,0.6049
2019-01-28 20:52:33.80,569,-421,7,81,-3.2137,0.0534,0.6183,-152,6728,14736,-0.0093,0.4106,0.8994,24.5388,0.5376
2019-01-28 20:52:33.92,570,-431,245,68,-3.2901,1.8702,0.5191,-68,6768,14772,-0.0042,0.4131,0.9016,24.6153,0.2398
2019-01-28 20:52:34.03,571,-410,230,67,-3.1298,1.7557,0.5115,-200,6692,14996,-0.0122,0.4084,0.9153,24.047,0.6978
2019-01-28 20:52:34.14,572,-414,255,63,-3.1603,1.9466,0.4809,-204,6780,14716,-0.0125,0.4138,0.8982,24.7345,0.7213
2019-01-28 20:52:34.26,573,-410,275,70,-3.1298,2.0992,0.5344,-148,6788,14740,-0.009,0.4143,0.8997,24.7257,0.5225
2019-01-28 20:52:34.37,574,-410,270,51,-3.1298,2.0611,0.3893,-212,6864,14796,-0.0129,0.4189,0.9031,24.8848,0.7447
2019-01-28 20:52:34.48,575,-399,257,61,-3.0458,1.9618,0.4656,-116,6784,15012,-0.0071,0.4141,0.9163,24.3178,0.4034
2019-01-28 20:52:34.59,576,-432,5,55,-3.2977,0.0382,0.4198,-152,6732,14736,-0.0093,0.4109,0.8994,24.5517,0.5375
2019-01-28 20:52:34.70,577,-430,267,89,-3.2824,2.0382,0.6794,-212,6836,14748,-0.0129,0.4172,0.9001,24.8664,0.7472
2019-01-28 20:52:34.82,578,-407,263,41,-3.1069,2.0076,0.313,-176,6824,14836,-0.0107,0.4165,0.9055,24.6991,0.6175
2019-01-28 20:52:34.93,579,-437,271,81,-3.3359,2.0687,0.6183,-196,6808,14812,-0.012,0.4155,0.9041,24.6829,0.6889
2019-01-28 20:52:35.04,580,-440,0,69,-3.3588,0.0,0.5267,-148,6760,14692,-0.009,0.4126,0.8967,24.7067,0.5243
2019-01-28 20:52:35.15,581,-408,497,74,-3.1145,3.7939,0.5649,-172,6768,14956,-0.0105,0.4131,0.9128,24.3466,0.6003
2019-01-28 20:52:35.27,582,-412,264,64,-3.145,2.0153,0.4885,-116,6812,14780,-0.0071,0.4158,0.9021,24.744,0.4084
2019-01-28 20:52:35.38,583,-397,266,57,-3.0305,2.0305,0.4351,-184,6732,14824,-0.0112,0.4109,0.9048,24.4225,0.6475
2019-01-28 20:52:35.49,584,-439,268,61,-3.3511,2.0458,0.4656,-200,6676,14608,-0.0122,0.4075,0.8916,24.5588,0.7134
2019-01-28 20:52:35.60,585,-422,281,75,-3.2214,2.145,0.5725,-176,6736,14760,-0.0107,0.4111,0.9009,24.5289,0.6215
2019-01-28 20:52:35.72,586,-421,251,73,-3.2137,1.916,0.5573,-228,6716,14816,-0.0139,0.4099,0.9043,24.3819,0.803
2019-01-28 20:52:35.83,587,-428,281,56,-3.2672,2.145,0.4275,-200,6764,14768,-0.0122,0.4128,0.9014,24.6066,0.7054
2019-01-28 20:52:35.94,588,-420,262,72,-3.2061,2.0,0.5496,-208,6676,14892,-0.0127,0.4075,0.9089,24.1443,0.7302
2019-01-28 20:52:36.05,589,-407,273,84,-3.1069,2.084,0.6412,-140,6752,14892,-0.0085,0.4121,0.9089,24.3885,0.4906
2019-01-28 20:52:36.17,590,-421,3,56,-3.2137,0.0229,0.4275,-236,6696,14748,-0.0144,0.4087,0.9001,24.4166,0.8348
2019-01-28 20:52:36.28,591,-415,510,55,-3.1679,3.8931,0.4198,-196,6780,14600,-0.012,0.4138,0.8911,24.9074,0.6976
2019-01-28 20:52:36.39,592,-433,498,82,-3.3053,3.8015,0.626,-128,6680,14788,-0.0078,0.4077,0.9026,24.3087,0.452
2019-01-28 20:52:36.51,593,-427,266,64,-3.2595,2.0305,0.4885,-4,6752,14748,-0.0002,0.4121,0.9001,24.5995,0.0141
2019-01-28 20:52:36.62,594,-418,3,77,-3.1908,0.0229,0.5878,-96,6704,15004,-0.0059,0.4092,0.9158,24.0753,0.3347
2019-01-28 20:52:36.73,595,-418,265,53,-3.1908,2.0229,0.4046,-492,6720,14700,-0.03,0.4102,0.8972,24.555,1.7435
2019-01-28 20:52:36.85,596,-406,288,88,-3.0992,2.1985,0.6718,-20,6668,14768,-0.0012,0.407,0.9014,24.3,0.0707
2019-01-28 20:52:36.96,597,-421,266,57,-3.2137,2.0305,0.4351,-156,6728,14760,-0.0095,0.4106,0.9009,24.5036,0.551
2019-01-28 20:52:37.07,598,-421,279,61,-3.2137,2.1298,0.4656,-56,6780,14340,-0.0034,0.4138,0.8752,25.3048,0.2023
2019-01-28 20:52:37.19,599,-419,262,71,-3.1985,2.0,0.542,-68,6744,14704,-0.0042,0.4116,0.8975,24.6384,0.2408
2019-01-28 20:52:37.30,600,-427,271,72,-3.2595,2.0687,0.5496,-172,6424,14672,-0.0105,0.3921,0.8955,23.6443,0.6153
2019-01-28 20:52:37.41,601,-414,277,85,-3.1603,2.1145,0.6489,-100,6752,14932,-0.0061,0.4121,0.9114,24.3312,0.3496
2019-01-28 20:52:37.52,602,-434,2,62,-3.313,0.0153,0.4733,-228,6736,14880,-0.0139,0.4111,0.9082,24.3532,0.7997
2019-01-28 20:52:37.64,603,-449,227,73,-3.4275,1.7328,0.5573,-8,6832,14648,-0.0005,0.417,0.894,25.0049,0.0284
2019-01-28 20:52:37.75,604,-415,508,69,-3.1679,3.8779,0.5267,-220,6680,14924,-0.0134,0.4077,0.9109,24.111,0.7709
2019-01-28 20:52:37.86,605,-410,269,48,-3.1298,2.0534,0.3664,-60,6744,14784,-0.0037,0.4116,0.9023,24.5208,0.2116
2019-01-28 20:52:37.97,606,-421,268,77,-3.2137,2.0458,0.5878,-284,6704,14744,-0.0173,0.4092,0.8999,24.447,1.0046
2019-01-28 20:52:38.09,607,-407,507,74,-3.1069,3.8702,0.5649,-124,6736,14840,-0.0076,0.4111,0.9058,24.4129,0.4359
2019-01-28 20:52:38.20,608,-411,251,78,-3.1374,1.916,0.5954,-108,6660,14924,-0.0066,0.4065,0.9109,24.0488,0.3786
2019-01-28 20:52:38.31,609,-432,284,59,-3.2977,2.1679,0.4504,-176,6700,14732,-0.0107,0.4089,0.8992,24.4541,0.6231
2019-01-28 20:52:38.42,610,-428,269,57,-3.2672,2.0534,0.4351,-164,6740,14784,-0.01,0.4114,0.9023,24.5068,0.5783
2019-01-28 20:52:38.54,611,-414,272,84,-3.1603,2.0763,0.6412,-172,6772,14712,-0.0105,0.4133,0.8979,24.7153,0.6085
2019-01-28 20:52:38.65,612,-420,262,64,-3.2061,2.0,0.4885,-160,6720,14748,-0.0098,0.4102,0.9001,24.4953,0.5656
2019-01-28 20:52:38.76,613,-403,265,85,-3.0763,2.0229,0.6489,-44,6680,14756,-0.0027,0.4077,0.9006,24.356,0.1556
2019-01-28 20:52:38.87,614,-446,258,74,-3.4046,1.9695,0.5649,-164,6708,14764,-0.01,0.4094,0.9011,24.4333,0.5794
2019-01-28 20:52:38.99,615,-409,272,60,-3.1221,2.0763,0.458,-432,6816,14816,-0.0264,0.416,0.9043,24.6952,1.5174
2019-01-28 20:52:39.10,616,-423,262,66,-3.229,2.0,0.5038,-188,6584,14612,-0.0115,0.4019,0.8918,24.254,0.6721
2019-01-28 20:52:39.21,617,-416,234,74,-3.1756,1.7863,0.5649,-180,6736,14860,-0.011,0.4111,0.907,24.3831,0.6321
2019-01-28 20:52:39.32,618,-415,265,83,-3.1679,2.0229,0.6336,-248,6664,14848,-0.0151,0.4067,0.9062,24.1683,0.873
2019-01-28 20:52:39.44,619,-397,245,68,-3.0305,1.8702,0.5191,-188,6516,14644,-0.0115,0.3977,0.8938,23.9854,0.672
2019-01-28 20:52:39.55,620,-392,256,67,-2.9924,1.9542,0.5115,-252,6668,15072,-0.0154,0.407,0.9199,23.8621,0.876
2019-01-28 20:52:39.66,621,-432,253,81,-3.2977,1.9313,0.6183,-156,6688,14776,-0.0095,0.4082,0.9019,24.3515,0.5511
2019-01-28 20:52:39.77,622,-396,270,59,-3.0229,2.0611,0.4504,-184,6512,14728,-0.0112,0.3975,0.8989,23.851,0.6546
2019-01-28 20:52:39.88,623,-416,1,71,-3.1756,0.0076,0.542,-172,6760,14888,-0.0105,0.4126,0.9087,24.4193,0.6027
2019-01-28 20:52:39.99,624,-377,223,101,-2.8779,1.7023,0.771,-196,6676,14732,-0.012,0.4075,0.8992,24.3764,0.6943
2019-01-28 20:52:40.09,625,-406,269,66,-3.0992,2.0534,0.5038,-248,6872,14752,-0.0151,0.4194,0.9004,24.9747,0.8731
2019-01-28 20:52:40.20,626,-383,238,96,-2.9237,1.8168,0.7328,-60,6844,14708,-0.0037,0.4177,0.8977,24.9536,0.2119
2019-01-28 20:52:40.31,627,-424,280,81,-3.2366,2.1374,0.6183,-148,6748,14704,-0.009,0.4119,0.8975,24.6504,0.5241
2019-01-28 20:52:40.42,628,-392,268,71,-2.9924,2.0458,0.542,-144,6788,14648,-0.0088,0.4143,0.894,24.8623,0.511
2019-01-28 20:52:40.53,629,-419,284,58,-3.1985,2.1679,0.4427,-160,6748,14696,-0.0098,0.4119,0.897,24.662,0.5669
2019-01-28 20:52:40.64,630,-427,279,53,-3.2595,2.1298,0.4046,-204,6496,14600,-0.0125,0.3965,0.8911,23.9837,0.7314
2019-01-28 20:52:40.75,631,-424,264,69,-3.2366,2.0153,0.5267,-112,6816,14712,-0.0068,0.416,0.8979,24.8574,0.3958
2019-01-28 20:52:40.86,632,-416,277,49,-3.1756,2.1145,0.374,-116,6672,14736,-0.0071,0.4072,0.8994,24.3589,0.4109
2019-01-28 20:52:40.98,633,-416,258,98,-3.1756,1.9695,0.7481,-116,6808,14892,-0.0071,0.4155,0.9089,24.5672,0.4059
2019-01-28 20:52:41.09,634,-449,302,53,-3.4275,2.3053,0.4046,-232,6772,14712,-0.0142,0.4133,0.8979,24.7141,0.8207
2019-01-28 20:52:41.20,635,-433,283,65,-3.3053,2.1603,0.4962,-488,6784,14868,-0.0298,0.4141,0.9075,24.5147,1.7104
2019-01-28 20:52:41.31,636,-455,273,61,-3.4733,2.084,0.4656,-224,6852,14680,-0.0137,0.4182,0.896,25.0186,0.7922
2019-01-28 20:52:41.43,637,-438,284,52,-3.3435,2.1679,0.3969,-148,6748,14852,-0.009,0.4119,0.9065,24.4336,0.5198
2019-01-28 20:52:41.54,638,-475,274,60,-3.626,2.0916,0.458,-480,6640,14668,-0.0293,0.4053,0.8953,24.3441,1.7076
2019-01-28 20:52:41.65,639,-419,507,67,-3.1985,3.8702,0.5115,-200,6732,14740,-0.0122,0.4109,0.8997,24.545,0.7071
2019-01-28 20:52:41.76,640,-406,266,81,-3.0992,2.0305,0.6183,-152,6728,14800,-0.0093,0.4106,0.9033,24.4451,0.5357
2019-01-28 20:52:41.88,641,-412,267,60,-3.145,2.0382,0.458,-140,6736,14748,-0.0085,0.4111,0.9001,24.5471,0.4947
2019-01-28 20:52:41.99,642,-426,271,53,-3.2519,2.0687,0.4046,-136,6736,14816,-0.0083,0.4111,0.9043,24.4477,0.4788
2019-01-28 20:52:42.10,643,-414,274,68,-3.1603,2.0916,0.5191,-192,6764,14700,-0.0117,0.4128,0.8972,24.707,0.6798
2019-01-28 20:52:42.22,644,-428,262,59,-3.2672,2.0,0.4504,-136,6680,14820,-0.0083,0.4077,0.9045,24.2622,0.4793
2019-01-28 20:52:42.33,645,-431,6,73,-3.2901,0.0458,0.5573,-128,6760,15004,-0.0078,0.4126,0.9158,24.253,0.4456
2019-01-28 20:52:42.44,646,-416,265,65,-3.1756,2.0229,0.4962,-484,6432,14668,-0.0295,0.3926,0.8953,23.6663,1.7309
2019-01-28 20:52:42.55,647,-446,265,78,-3.4046,2.0229,0.5954,-80,6728,14760,-0.0049,0.4106,0.9009,24.5044,0.2826
2019-01-28 20:52:42.67,648,-406,506,69,-3.0992,3.8626,0.5267,-40,6700,14708,-0.0024,0.4089,0.8977,24.4908,0.1418
2019-01-28 20:52:42.78,649,-421,259,73,-3.2137,1.9771,0.5573,-224,6836,14720,-0.0137,0.4172,0.8984,24.9077,0.7907
2019-01-28 20:52:42.89,650,-415,243,65,-3.1679,1.855,0.4962,-108,6788,15020,-0.0066,0.4143,0.9167,24.3191,0.3754
2019-01-28 20:52:43.00,651,-416,260,75,-3.1756,1.9847,0.5725,-108,6712,14812,-0.0066,0.4097,0.9041,24.3769,0.3805
2019-01-28 20:52:43.12,652,-426,262,83,-3.2519,2.0,0.6336,-172,6776,14752,-0.0105,0.4136,0.9004,24.6691,0.607
2019-01-28 20:52:43.23,653,-431,240,72,-3.2901,1.8321,0.5496,-260,6704,14944,-0.0159,0.4092,0.9121,24.1582,0.9094
2019-01-28 20:52:43.34,654,-422,287,56,-3.2214,2.1908,0.4275,-60,6744,14792,-0.0037,0.4116,0.9028,24.5091,0.2115
2019-01-28 20:52:43.45,655,-423,507,80,-3.229,3.8702,0.6107,-104,6732,14840,-0.0063,0.4109,0.9058,24.4004,0.3657
2019-01-28 20:52:43.56,656,-417,278,77,-3.1832,2.1221,0.5878,-136,6704,14864,-0.0083,0.4092,0.9072,24.2756,0.4779
2019-01-28 20:52:43.67,657,-394,255,75,-3.0076,1.9466,0.5725,-196,6716,14700,-0.012,0.4099,0.8972,24.5523,0.6948
2019-01-28 20:52:43.77,658,-408,261,90,-3.1145,1.9924,0.687,-212,6756,14864,-0.0129,0.4124,0.9072,24.4406,0.7439
2019-01-28 20:52:43.88,659,-421,275,61,-3.2137,2.0992,0.4656,-252,6740,14732,-0.0154,0.4114,0.8992,24.5813,0.8912
2019-01-28 20:52:43.99,660,-425,241,78,-3.2443,1.8397,0.5954,-124,6756,14740,-0.0076,0.4124,0.8997,24.6233,0.4382
2019-01-28 20:52:44.10,661,-397,249,56,-3.0305,1.9008,0.4275,-16,6736,14816,-0.001,0.4111,0.9043,24.4486,0.0563
2019-01-28 20:52:44.21,662,-414,252,78,-3.1603,1.9237,0.5954,-260,6788,14756,-0.0159,0.4143,0.9006,24.6998,0.9171
2019-01-28 20:52:44.32,663,-416,271,59,-3.1756,2.0687,0.4504,-152,6764,14852,-0.0093,0.4128,0.9065,24.4847,0.5336
2019-01-28 20:52:44.42,664,-413,259,85,-3.1527,1.9771,0.6489,-124,6796,15064,-0.0076,0.4148,0.9194,24.2814,0.4299
2019-01-28 20:52:44.53,665,-440,246,103,-3.3588,1.8779,0.7863,-160,6764,14876,-0.0098,0.4128,0.908,24.4497,0.561
2019-01-28 20:52:44.64,666,-429,260,85,-3.2748,1.9847,0.6489,-404,6664,14840,-0.0247,0.4067,0.9058,24.1748,1.4226
2019-01-28 20:52:44.75,667,-413,10,54,-3.1527,0.0763,0.4122,-204,6648,14952,-0.0125,0.4058,0.9126,23.969,0.7143
2019-01-28 20:52:44.86,668,-406,274,65,-3.0992,2.0916,0.4962,-180,6864,14808,-0.011,0.4189,0.9038,24.8677,0.6319
2019-01-28 20:52:44.97,669,-428,273,68,-3.2672,2.084,0.5191,-212,6724,14756,-0.0129,0.4104,0.9006,24.4955,0.749
2019-01-28 20:52:45.08,670,-411,268,76,-3.1374,2.0458,0.5802,-224,6684,14768,-0.0137,0.408,0.9014,24.349,0.7917
2019-01-28 20:52:45.20,671,-416,265,64,-3.1756,2.0229,0.4885,-176,6668,14900,-0.0107,0.407,0.9094,24.1078,0.6177
2019-01-28 20:52:45.31,672,-414,7,63,-3.1603,0.0534,0.4809,-200,6720,14732,-0.0122,0.4102,0.8992,24.5181,0.7077
2019-01-28 20:52:45.42,673,-410,246,60,-3.1298,1.8779,0.458,-88,6904,14644,-0.0054,0.4214,0.8938,25.2414,0.3114
2019-01-28 20:52:45.53,674,-441,497,94,-3.3664,3.7939,0.7176,248,6692,14728,0.0151,0.4084,0.8989,24.4327,-0.8783
2019-01-28 20:52:45.65,675,-406,238,82,-3.0992,1.8168,0.626,-220,6788,14776,-0.0134,0.4143,0.9019,24.6713,0.7751
2019-01-28 20:52:45.76,676,-417,262,87,-3.1832,2.0,0.6641,-172,6716,14792,-0.0105,0.4099,0.9028,24.418,0.6066
2019-01-28 20:52:45.87,677,-414,260,81,-3.1603,1.9847,0.6183,-172,6692,14788,-0.0105,0.4084,0.9026,24.3467,0.6071
2019-01-28 20:52:45.98,678,-408,289,66,-3.1145,2.2061,0.5038,-108,6764,14776,-0.0066,0.4128,0.9019,24.5963,0.3808
2019-01-28 20:52:46.10,679,-406,268,74,-3.0992,2.0458,0.5649,-124,6712,14804,-0.0076,0.4097,0.9036,24.3884,0.4371
2019-01-28 20:52:46.21,680,-378,262,79,-2.8855,2.0,0.6031,-344,6812,14592,-0.021,0.4158,0.8906,25.0185,1.2237
2019-01-28 20:52:46.32,681,-410,245,62,-3.1298,1.8702,0.4733,-12,6712,14792,-0.0007,0.4097,0.9028,24.4066,0.0423
2019-01-28 20:52:46.43,682,-428,269,87,-3.2672,2.0534,0.6641,-252,6796,14752,-0.0154,0.4148,0.9004,24.7316,0.8889
2019-01-28 20:52:46.55,683,-425,276,72,-3.2443,2.1069,0.5496,248,6764,14716,0.0151,0.4128,0.8982,24.6821,-0.8773
2019-01-28 20:52:46.66,684,-425,505,58,-3.2443,3.855,0.4427,-116,6744,14804,-0.0071,0.4116,0.9036,24.4911,0.4086
2019-01-28 20:52:46.77,685,-428,267,96,-3.2672,2.0382,0.7328,-452,6812,14676,-0.0276,0.4158,0.8958,24.8884,1.6002
2019-01-28 20:52:46.88,686,-398,269,58,-3.0382,2.0534,0.4427,-92,6752,14772,-0.0056,0.4121,0.9016,24.5638,0.3245
2019-01-28 20:52:47.00,687,-432,276,53,-3.2977,2.1069,0.4046,-172,6712,14636,-0.0105,0.4097,0.8933,24.6345,0.612
2019-01-28 20:52:47.11,688,-420,265,79,-3.2061,2.0229,0.6031,-172,6788,14776,-0.0105,0.4143,0.9019,24.6723,0.606
2019-01-28 20:52:47.22,689,-411,268,60,-3.1374,2.0458,0.458,-208,6776,14800,-0.0127,0.4136,0.9033,24.598,0.7321
2019-01-28 20:52:47.33,690,-400,265,86,-3.0534,2.0229,0.6565,-224,6668,14696,-0.0137,0.407,0.897,24.4027,0.7952
2019-01-28 20:52:47.45,691,-388,258,68,-2.9618,1.9695,0.5191,-80,6440,15016,-0.0049,0.3931,0.9165,23.213,0.2805
2019-01-28 20:52:47.56,692,-403,279,59,-3.0763,2.1298,0.4504,-164,6672,14780,-0.01,0.4072,0.9021,24.2941,0.5794
2019-01-28 20:52:47.67,693,-445,276,69,-3.3969,2.1069,0.5267,-244,6732,14608,-0.0149,0.4109,0.8916,24.7393,0.8691
2019-01-28 20:52:47.79,694,-419,285,87,-3.1985,2.1756,0.6641,-236,6756,14764,-0.0144,0.4124,0.9011,24.586,0.8328
2019-01-28 20:52:47.90,695,-440,246,68,-3.3588,1.8779,0.5191,-136,6864,14592,-0.0083,0.4189,0.8906,25.1911,0.4832
2019-01-28 20:52:48.01,696,-384,274,76,-2.9313,2.0916,0.5802,-204,6788,14840,-0.0125,0.4143,0.9058,24.5779,0.7162
2019-01-28 20:52:48.12,697,-420,273,87,-3.2061,2.084,0.6641,-20,6744,14744,-0.0012,0.4116,0.8999,24.5796,0.0707
2019-01-28 20:52:48.24,698,-418,277,73,-3.1908,2.1145,0.5573,-16,6772,14820,-0.001,0.4133,0.9045,24.558,0.0563
2019-01-28 20:52:48.35,699,-417,271,61,-3.1832,2.0687,0.4656,-100,6720,14876,-0.0061,0.4102,0.908,24.3098,0.351
2019-01-28 20:52:48.46,700,-396,271,79,-3.0229,2.0687,0.6031,-100,6696,14840,-0.0061,0.4087,0.9058,24.285,0.3519
2019-01-28 20:52:48.58,701,-417,502,71,-3.1832,3.8321,0.542,72,6688,14704,0.0044,0.4082,0.8975,24.4578,-0.2554
2019-01-28 20:52:48.69,702,-440,11,74,-3.3588,0.084,0.5649,-172,6748,14860,-0.0105,0.4119,0.907,24.4216,0.6038
2019-01-28 20:52:48.80,703,-431,278,58,-3.2901,2.1221,0.4427,-204,6732,14696,-0.0125,0.4109,0.897,24.6097,0.723
2019-01-28 20:52:48.92,704,-422,0,47,-3.2214,0.0,0.3588,-24,6784,14808,-0.0015,0.4141,0.9038,24.6139,0.0844
2019-01-28 20:52:49.03,705,-427,284,64,-3.2595,2.1679,0.4885,-8,6504,14680,-0.0005,0.397,0.896,23.8958,0.0285
2019-01-28 20:52:49.14,706,-421,246,44,-3.2137,1.8779,0.3359,-152,6672,15060,-0.0093,0.4072,0.9192,23.8936,0.5287
2019-01-28 20:52:49.26,707,-413,271,72,-3.1527,2.0687,0.5496,-136,6640,14736,-0.0083,0.4053,0.8994,24.2553,0.4821
2019-01-28 20:52:49.37,708,-438,251,94,-3.3435,1.916,0.7176,-208,6720,14624,-0.0127,0.4102,0.8926,24.6775,0.7404
2019-01-28 20:52:49.48,709,-416,255,76,-3.1756,1.9466,0.5802,-152,6688,14728,-0.0093,0.4082,0.8989,24.4217,0.5384
2019-01-28 20:52:49.60,710,-430,241,56,-3.2824,1.8397,0.4275,-228,6796,14736,-0.0139,0.4148,0.8994,24.7558,0.805
2019-01-28 20:52:49.71,711,-432,263,64,-3.2977,2.0076,0.4885,-220,6712,14800,-0.0134,0.4097,0.9033,24.3926,0.7756
2019-01-28 20:52:49.82,712,-442,266,69,-3.374,2.0305,0.5267,-196,6740,14840,-0.012,0.4114,0.9058,24.4246,0.689
2019-01-28 20:52:49.93,713,-427,275,80,-3.2595,2.0992,0.6107,-24,6748,14824,-0.0015,0.4119,0.9048,24.4754,0.0844
2019-01-28 20:52:50.05,714,-422,271,78,-3.2214,2.0687,0.5954,-92,6748,15072,-0.0056,0.4119,0.9199,24.1185,0.3192
2019-01-28 20:52:50.16,715,-393,282,41,-3.0,2.1527,0.313,-148,6756,15036,-0.009,0.4124,0.9177,24.1944,0.5144
2019-01-28 20:52:50.27,716,-424,249,78,-3.2366,1.9008,0.5954,-64,6708,14868,-0.0039,0.4094,0.9075,24.2833,0.2248
2019-01-28 20:52:50.38,717,-397,264,80,-3.0305,2.0153,0.6107,-108,6404,14792,-0.0066,0.3909,0.9028,23.409,0.3839
2019-01-28 20:52:50.50,718,-413,271,81,-3.1527,2.0687,0.6183,-204,6740,14728,-0.0125,0.4114,0.8989,24.5883,0.7216
2019-01-28 20:52:50.61,719,-389,260,58,-2.9695,1.9847,0.4427,-220,6796,15056,-0.0134,0.4148,0.9189,24.2912,0.763
2019-01-28 20:52:50.72,720,-435,255,56,-3.3206,1.9466,0.4275,-184,6828,14892,-0.0112,0.4167,0.9089,24.6299,0.6435
2019-01-28 20:52:50.83,721,-414,3,51,-3.1603,0.0229,0.3893,-208,6676,14884,-0.0127,0.4075,0.9084,24.1558,0.7305
2019-01-28 20:52:50.95,722,-414,248,54,-3.1603,1.8931,0.4122,-148,6808,14652,-0.009,0.4155,0.8943,24.9207,0.5248
2019-01-28 20:52:51.06,723,-401,271,92,-3.0611,2.0687,0.7023,-104,6772,14816,-0.0063,0.4133,0.9043,24.5633,0.3658
2019-01-28 20:52:51.17,724,-400,299,64,-3.0534,2.2824,0.4885,-108,6732,14700,-0.0066,0.4109,0.8972,24.6053,0.3827
2019-01-28 20:52:51.28,725,-429,279,69,-3.2748,2.1298,0.5267,-148,6744,14804,-0.009,0.4116,0.9036,24.4907,0.5212
2019-01-28 20:52:51.39,726,-421,274,79,-3.2137,2.0916,0.6031,-172,6652,14788,-0.0105,0.406,0.9026,24.2179,0.6077
2019-01-28 20:52:51.50,727,-438,279,57,-3.3435,2.1298,0.4351,-200,6812,14664,-0.0122,0.4158,0.895,24.9147,0.7087
2019-01-28 20:52:51.62,728,-404,267,64,-3.084,2.0382,0.4885,-160,6792,14776,-0.0098,0.4146,0.9019,24.6853,0.5637
2019-01-28 20:52:51.73,729,-443,281,65,-3.3817,2.145,0.4962,-164,6664,14644,-0.01,0.4067,0.8938,24.4674,0.584
2019-01-28 20:52:51.84,730,-406,277,80,-3.0992,2.1145,0.6107,128,6724,14788,0.0078,0.4104,0.9026,24.4502,-0.4514
2019-01-28 20:52:51.96,731,-412,263,60,-3.145,2.0076,0.458,-12,6692,15008,-0.0007,0.4084,0.916,24.0319,0.0418
2019-01-28 20:52:52.07,732,-431,262,92,-3.2901,2.0,0.7023,-60,6728,14792,-0.0037,0.4106,0.9028,24.4578,0.2115
2019-01-28 20:52:52.18,733,-422,507,60,-3.2214,3.8702,0.458,-136,6724,14788,-0.0083,0.4104,0.9026,24.45,0.4797
2019-01-28 20:52:52.30,734,-393,275,87,-3.0,2.0992,0.6641,-184,6824,14836,-0.0112,0.4165,0.9055,24.699,0.6456
2019-01-28 20:52:52.41,735,-443,278,35,-3.3817,2.1221,0.2672,-116,6908,15040,-0.0071,0.4216,0.918,24.6691,0.4016
2019-01-28 20:52:52.52,736,-424,277,64,-3.2366,2.1145,0.4885,-140,6752,14796,-0.0085,0.4121,0.9031,24.5281,0.4932
2019-01-28 20:52:52.64,737,-395,268,44,-3.0153,2.0458,0.3359,-64,6800,14708,-0.0039,0.415,0.8977,24.8125,0.2263
2019-01-28 20:52:52.75,738,-425,280,91,-3.2443,2.1374,0.6947,-176,6884,14692,-0.0107,0.4202,0.8967,25.1041,0.6215
2019-01-28 20:52:52.87,739,-423,8,66,-3.229,0.0611,0.5038,-168,6680,14980,-0.0103,0.4077,0.9143,24.0321,0.5868
2019-01-28 20:52:52.98,740,-420,509,65,-3.2061,3.8855,0.4962,-216,6868,14688,-0.0132,0.4192,0.8965,25.0581,0.7632
2019-01-28 20:52:53.09,741,-419,7,73,-3.1985,0.0534,0.5573,-140,6908,14876,-0.0085,0.4216,0.908,24.9079,0.489
2019-01-28 20:52:53.20,742,-405,262,77,-3.0916,2.0,0.5878,-348,6688,14612,-0.0212,0.4082,0.8918,24.5877,1.2406
2019-01-28 20:52:53.32,743,-427,245,69,-3.2595,1.8702,0.5267,-188,6748,14808,-0.0115,0.4119,0.9038,24.497,0.6619
2019-01-28 20:52:53.43,744,-392,14,73,-2.9924,0.1069,0.5573,-156,6796,14892,-0.0095,0.4148,0.9089,24.5285,0.546
2019-01-28 20:52:53.54,745,-432,272,75,-3.2977,2.0763,0.5725,-20,6716,14676,-0.0012,0.4099,0.8958,24.5897,0.071
2019-01-28 20:52:53.65,746,-445,252,70,-3.3969,1.9237,0.5344,-160,6704,14852,-0.0098,0.4092,0.9065,24.2926,0.5626
2019-01-28 20:52:53.77,747,-425,276,38,-3.2443,2.1069,0.2901,-20,6872,14772,-0.0012,0.4194,0.9016,24.948,0.0703
2019-01-28 20:52:53.88,748,-424,233,85,-3.2366,1.7786,0.6489,-100,6776,14712,-0.0061,0.4136,0.8979,24.7292,0.3537
2019-01-28 20:52:53.99,749,-405,254,69,-3.0916,1.9389,0.5267,-136,6740,14736,-0.0083,0.4114,0.8994,24.5776,0.4809
2019-01-28 20:52:54.10,750,-394,507,71,-3.0076,3.8702,0.542,-88,6804,14732,-0.0054,0.4153,0.8992,24.7895,0.3107
2019-01-28 20:52:54.22,751,-386,504,96,-2.9466,3.8473,0.7328,-92,6740,14848,-0.0056,0.4114,0.9062,24.4145,0.3233
2019-01-28 20:52:54.33,752,-416,305,53,-3.1756,2.3282,0.4046,-52,6688,14756,-0.0032,0.4082,0.9006,24.3818,0.1839
2019-01-28 20:52:54.44,753,-436,259,67,-3.3282,1.9771,0.5115,-36,6796,14776,-0.0022,0.4148,0.9019,24.6993,0.1268
2019-01-28 20:52:54.55,754,-431,277,86,-3.2901,2.1145,0.6565,-8,6720,14792,-0.0005,0.4102,0.9028,24.4323,0.0282
2019-01-28 20:52:54.67,755,-446,267,58,-3.4046,2.0382,0.4427,-4,6792,14844,-0.0002,0.4146,0.906,24.5869,0.014
2019-01-28 20:52:54.78,756,-406,258,96,-3.0992,1.9695,0.7328,-108,6764,14796,-0.0066,0.4128,0.9031,24.567,0.3804
2019-01-28 20:52:54.89,757,-408,276,65,-3.1145,2.1069,0.4962,-188,6696,14748,-0.0115,0.4087,0.9001,24.4176,0.665
2019-01-28 20:52:55.00,758,-371,256,74,-2.8321,1.9542,0.5649,-212,6732,14868,-0.0129,0.4109,0.9075,24.3581,0.7442
2019-01-28 20:52:55.12,759,-404,508,67,-3.084,3.8779,0.5115,-156,6756,14704,-0.0095,0.4124,0.8975,24.676,0.5523
2019-01-28 20:52:55.23,760,-419,242,80,-3.1985,1.8473,0.6107,-112,6772,14836,-0.0068,0.4133,0.9055,24.5341,0.3935
2019-01-28 20:52:55.34,761,-427,0,64,-3.2595,0.0,0.4885,-104,6800,15044,-0.0063,0.415,0.9182,24.3228,0.3609
2019-01-28 20:52:55.45,762,-408,269,57,-3.1145,2.0534,0.4351,-96,6764,14848,-0.0059,0.4128,0.9062,24.4912,0.3371
2019-01-28 20:52:55.57,763,-443,270,49,-3.3817,2.0611,0.374,-172,6748,14720,-0.0105,0.4119,0.8984,24.6264,0.6086
2019-01-28 20:52:55.68,764,-426,289,66,-3.2519,2.2061,0.5038,-136,6688,14868,-0.0083,0.4082,0.9075,24.2185,0.478
2019-01-28 20:52:55.79,765,-393,277,78,-3.0,2.1145,0.5954,-116,6716,15064,-0.0071,0.4099,0.9194,24.0282,0.403
2019-01-28 20:52:55.90,766,-453,277,62,-3.458,2.1145,0.4733,-20,6816,14748,-0.0012,0.416,0.9001,24.8047,0.0705
2019-01-28 20:52:56.02,767,-445,293,25,-3.3969,2.2366,0.1908,-100,6416,14828,-0.0061,0.3916,0.905,23.3974,0.3546
2019-01-28 20:52:56.13,768,-454,336,64,-3.4656,2.5649,0.4885,-172,6736,14740,-0.0105,0.4111,0.8997,24.5583,0.6081
2019-01-28 20:52:56.24,769,-455,279,33,-3.4733,2.1298,0.2519,36,6580,14548,0.0022,0.4016,0.8879,24.337,-0.1292
2019-01-28 20:52:56.35,770,-471,304,46,-3.5954,2.3206,0.3511,-180,6624,14744,-0.011,0.4043,0.8999,24.1912,0.638
2019-01-28 20:52:56.47,771,-426,279,58,-3.2519,2.1298,0.4427,-232,6676,14636,-0.0142,0.4075,0.8933,24.5167,0.8263
2019-01-28 20:52:56.58,772,-421,257,48,-3.2137,1.9618,0.3664,-256,6648,14716,-0.0156,0.4058,0.8982,24.308,0.9083
2019-01-28 20:52:56.69,773,-414,266,74,-3.1603,2.0305,0.5649,-200,6704,14764,-0.0122,0.4092,0.9011,24.4198,0.7067
2019-01-28 20:52:56.81,774,-411,511,77,-3.1374,3.9008,0.5878,-220,6716,14604,-0.0134,0.4099,0.8914,24.694,0.7841
2019-01-28 20:52:56.92,775,-450,261,64,-3.4351,1.9924,0.4885,-88,6796,14976,-0.0054,0.4148,0.9141,24.4078,0.3066
2019-01-28 20:52:57.03,776,-395,246,72,-3.0153,1.8779,0.5496,-176,6752,14748,-0.0107,0.4121,0.9001,24.5979,0.6217
2019-01-28 20:52:57.14,777,-403,268,59,-3.0763,2.0458,0.4504,-128,6680,14836,-0.0078,0.4077,0.9055,24.2391,0.4507
2019-01-28 20:52:57.26,778,-415,498,79,-3.1679,3.8015,0.6031,-208,6732,14604,-0.0127,0.4109,0.8914,24.7461,0.7411
2019-01-28 20:52:57.37,779,-401,256,65,-3.0611,1.9542,0.4962,-304,6720,14800,-0.0186,0.4102,0.9033,24.4161,1.0715
2019-01-28 20:52:57.48,780,-417,270,55,-3.1832,2.0611,0.4198,-172,6712,14844,-0.0105,0.4097,0.906,24.3296,0.6049
2019-01-28 20:52:57.59,781,-416,236,52,-3.1756,1.8015,0.3969,-188,6736,14808,-0.0115,0.4111,0.9038,24.4585,0.6621
2019-01-28 20:52:57.71,782,-441,278,61,-3.3664,2.1221,0.4656,-196,6456,14640,-0.012,0.394,0.8936,23.7948,0.7018
2019-01-28 20:52:57.82,783,-413,268,84,-3.1527,2.0458,0.6412,-128,6896,14892,-0.0078,0.4209,0.9089,24.8465,0.4469
2019-01-28 20:52:57.93,784,-426,272,69,-3.2519,2.0763,0.5267,-236,6700,14744,-0.0144,0.4089,0.8999,24.4353,0.8349
2019-01-28 20:52:58.05,785,-428,258,92,-3.2672,1.9695,0.7023,-132,6712,14752,-0.0081,0.4097,0.9004,24.4642,0.4666
2019-01-28 20:52:58.16,786,-416,504,82,-3.1756,3.8473,0.626,-212,6668,14736,-0.0129,0.407,0.8994,24.3444,0.7509
2019-01-28 20:52:58.27,787,-389,270,80,-2.9695,2.0611,0.6107,-144,6744,14868,-0.0088,0.4116,0.9075,24.3976,0.5054
2019-01-28 20:52:58.38,788,-398,289,53,-3.0382,2.2061,0.4046,-156,6708,14856,-0.0095,0.4094,0.9067,24.2996,0.5483
2019-01-28 20:52:58.50,789,-424,261,61,-3.2366,1.9924,0.4656,-284,6660,14824,-0.0173,0.4065,0.9048,24.1891,1.0012
2019-01-28 20:52:58.61,790,-399,269,57,-3.0458,2.0534,0.4351,-180,6736,14868,-0.011,0.4111,0.9075,24.3715,0.6318
2019-01-28 20:52:58.72,791,-445,262,70,-3.3969,2.0,0.5344,-68,6696,14800,-0.0042,0.4087,0.9033,24.3433,0.2398
2019-01-28 20:52:58.83,792,-401,266,58,-3.0611,2.0305,0.4427,-92,6468,14864,-0.0056,0.3948,0.9072,23.5156,0.3252
2019-01-28 20:52:58.95,793,-400,510,60,-3.0534,3.8931,0.458,-116,6756,14844,-0.0071,0.4124,0.906,24.4712,0.4075
2019-01-28 20:52:59.06,794,-417,272,44,-3.1832,2.0763,0.3359,-72,6732,14680,-0.0044,0.4109,0.896,24.6351,0.2554
2019-01-28 20:52:59.17,795,-398,230,77,-3.0382,1.7557,0.5878,-4,6700,14820,-0.0002,0.4089,0.9045,24.3273,0.0141
2019-01-28 20:52:59.28,796,-443,283,46,-3.3817,2.1603,0.3511,-80,6656,14728,-0.0049,0.4062,0.8989,24.3192,0.2836
2019-01-28 20:52:59.40,797,-422,6,47,-3.2214,0.0458,0.3588,-116,6868,14884,-0.0071,0.4192,0.9084,24.7696,0.4054
2019-01-28 20:52:59.51,798,-427,286,54,-3.2595,2.1832,0.4122,-128,6720,15040,-0.0078,0.4102,0.918,24.0747,0.4452
2019-01-28 20:52:59.62,799,-429,286,48,-3.2748,2.1832,0.3664,-72,6888,14824,-0.0044,0.4204,0.9048,24.9218,0.2524
2019-01-28 20:52:59.74,800,-431,288,51,-3.2901,2.1985,0.3893,-112,6784,14772,-0.0068,0.4141,0.9016,24.6662,0.3948
2019-01-28 20:52:59.85,801,-418,262,47,-3.1908,2.0,0.3588,-168,6760,15076,-0.0103,0.4126,0.9202,24.1499,0.5826
2019-01-28 20:52:59.96,802,-410,274,61,-3.1298,2.0916,0.4656,-152,6876,14732,-0.0093,0.4197,0.8992,25.0191,0.5357
2019-01-28 20:53:00.08,803,-439,276,76,-3.3511,2.1069,0.5802,-92,6836,14764,-0.0056,0.4172,0.9011,24.8446,0.324
2019-01-28 20:53:00.19,804,-411,265,66,-3.1374,2.0229,0.5038,-112,6680,14760,-0.0068,0.4077,0.9009,24.3497,0.3961
2019-01-28 20:53:00.30,805,-413,262,61,-3.1527,2.0,0.4656,-96,6688,14596,-0.0059,0.4082,0.8909,24.6171,0.3426
2019-01-28 20:53:00.41,806,-423,275,67,-3.229,2.0992,0.5115,-240,6616,14724,-0.0146,0.4038,0.8987,24.1932,0.8518
2019-01-28 20:53:00.53,807,-430,273,77,-3.2824,2.084,0.5878,-144,6676,14840,-0.0088,0.4075,0.9058,24.2203,0.507
2019-01-28 20:53:00.64,808,-429,266,63,-3.2748,2.0305,0.4809,-216,6436,14864,-0.0132,0.3928,0.9072,23.41,0.764
2019-01-28 20:53:00.75,809,-404,285,72,-3.084,2.1756,0.5496,-136,6796,14772,-0.0083,0.4148,0.9016,24.7043,0.4792
2019-01-28 20:53:00.87,810,-437,270,59,-3.3359,2.0611,0.4504,-248,6756,14636,-0.0151,0.4124,0.8933,24.775,0.8814
2019-01-28 20:53:00.98,811,-423,278,67,-3.229,2.1221,0.5115,-148,6760,14752,-0.009,0.4126,0.9004,24.6182,0.5226
2019-01-28 20:53:01.09,812,-413,250,78,-3.1527,1.9084,0.5954,-140,6768,14772,-0.0085,0.4131,0.9016,24.6146,0.4937
2019-01-28 20:53:01.21,813,-426,244,51,-3.2519,1.8626,0.3893,-236,6712,14784,-0.0144,0.4097,0.9023,24.4155,0.8328
2019-01-28 20:53:01.32,814,-394,260,72,-3.0076,1.9847,0.5496,-204,6732,14596,-0.0125,0.4109,0.8909,24.7581,0.7271
2019-01-28 20:53:01.43,815,-418,242,53,-3.1908,1.8473,0.4046,-236,6408,14772,-0.0144,0.3911,0.9016,23.4482,0.8397
2019-01-28 20:53:01.54,816,-414,257,67,-3.1603,1.9618,0.5115,-188,6688,14804,-0.0115,0.4082,0.9036,24.3103,0.6631
2019-01-28 20:53:01.66,817,-440,275,66,-3.3588,2.0992,0.5038,-208,6680,14688,-0.0127,0.4077,0.8965,24.4535,0.7385
2019-01-28 20:53:01.77,818,-422,284,68,-3.2214,2.1679,0.5191,-180,6848,14624,-0.011,0.418,0.8926,25.0907,0.6386
2019-01-28 20:53:01.88,819,-399,3,84,-3.0458,0.0229,0.6412,-152,6716,14772,-0.0093,0.4099,0.9016,24.4475,0.5367
2019-01-28 20:53:02.00,820,-422,281,64,-3.2214,2.145,0.4885,-188,6688,14748,-0.0115,0.4082,0.9001,24.3918,0.6651
2019-01-28 20:53:02.11,821,-422,264,46,-3.2214,2.0153,0.3511,-148,6732,14740,-0.009,0.4109,0.8997,24.5459,0.5233
2019-01-28 20:53:02.22,822,-396,503,69,-3.0229,3.8397,0.5267,-136,6440,14944,-0.0083,0.3931,0.9121,23.3124,0.4788
2019-01-28 20:53:02.33,823,-423,255,84,-3.229,1.9466,0.6412,-212,6748,14908,-0.0129,0.4119,0.9099,24.3514,0.7422
2019-01-28 20:53:02.45,824,-415,267,62,-3.1679,2.0382,0.4733,-88,6760,14688,-0.0054,0.4126,0.8965,24.7134,0.3118
2019-01-28 20:53:02.56,825,-415,262,83,-3.1679,2.0,0.6336,-180,6672,14844,-0.011,0.4072,0.906,24.2011,0.6337
2019-01-28 20:53:02.67,826,-441,296,23,-3.3664,2.2595,0.1756,-12,6412,14820,-0.0007,0.3914,0.9045,23.3961,0.0426
2019-01-28 20:53:02.78,827,-398,242,63,-3.0382,1.8473,0.4809,-144,6772,14640,-0.0088,0.4133,0.8936,24.8227,0.5115
2019-01-28 20:53:02.90,828,-410,263,59,-3.1298,2.0076,0.4504,240,6876,14640,0.0146,0.4197,0.8936,25.1552,-0.8501
2019-01-28 20:53:03.01,829,-448,278,56,-3.4198,2.1221,0.4275,-140,6736,14832,-0.0085,0.4111,0.9053,24.4244,0.4924
2019-01-28 20:53:03.12,830,-408,270,50,-3.1145,2.0611,0.3817,-164,6712,14732,-0.01,0.4097,0.8992,24.493,0.5804
2019-01-28 20:53:03.23,831,-395,211,76,-3.0153,1.6107,0.5802,-168,6744,14600,-0.0103,0.4116,0.8911,24.7916,0.5985
2019-01-28 20:53:03.35,832,-347,232,70,-2.6489,1.771,0.5344,-244,6768,14804,-0.0149,0.4131,0.9036,24.5657,0.8588
2019-01-28 20:53:03.46,833,-373,243,83,-2.8473,1.855,0.6336,-32,6740,14924,-0.002,0.4114,0.9109,24.3049,0.112
2019-01-28 20:53:03.57,834,-401,274,72,-3.0611,2.0916,0.5496,-100,6856,14896,-0.0061,0.4185,0.9092,24.7141,0.3494
2019-01-28 20:53:03.68,835,-410,299,47,-3.1298,2.2824,0.3588,-140,6752,14520,-0.0085,0.4121,0.8862,24.9381,0.5009
2019-01-28 20:53:03.80,836,-406,289,47,-3.0992,2.2061,0.3588,-172,6832,14800,-0.0105,0.417,0.9033,24.7776,0.6045
2019-01-28 20:53:03.91,837,-416,246,81,-3.1756,1.8779,0.6183,-104,6808,14704,-0.0063,0.4155,0.8975,24.8437,0.3677
2019-01-28 20:53:04.02,838,-422,262,98,-3.2214,2.0,0.7481,-160,6884,14936,-0.0098,0.4202,0.9116,24.7437,0.5574
2019-01-28 20:53:04.13,839,-409,229,72,-3.1221,1.7481,0.5496,-212,6684,14868,-0.0129,0.408,0.9075,24.2044,0.7451
2019-01-28 20:53:04.25,840,-425,14,62,-3.2443,0.1069,0.4733,-136,6708,14828,-0.0083,0.4094,0.905,24.3405,0.4788
2019-01-28 20:53:04.36,841,-426,278,57,-3.2519,2.1221,0.4351,-464,6700,14812,-0.0283,0.4089,0.9041,24.3284,1.6349
2019-01-28 20:53:04.47,842,-401,254,40,-3.0611,1.9389,0.3053,-232,6552,14496,-0.0142,0.3999,0.8848,24.3196,0.8355
2019-01-28 20:53:04.58,843,-378,231,82,-2.8855,1.7634,0.626,0,6544,14760,0.0,0.3994,0.9009,23.9106,-0.0
2019-01-28 20:53:04.70,844,-394,12,91,-3.0076,0.0916,0.6947,28,6792,14652,0.0017,0.4146,0.8943,24.8703,-0.0993
2019-01-28 20:53:04.81,845,-410,275,75,-3.1298,2.0992,0.5725,-104,6848,14776,-0.0063,0.418,0.9019,24.865,0.3659
2019-01-28 20:53:04.92,846,-401,271,73,-3.0611,2.0687,0.5573,-108,6876,14852,-0.0066,0.4197,0.9065,24.842,0.3781
2019-01-28 20:53:05.03,847,-406,248,80,-3.0992,1.8931,0.6107,-156,6876,14824,-0.0095,0.4197,0.9048,24.8827,0.547
2019-01-28 20:53:05.15,848,-393,257,87,-3.0,1.9618,0.6641,-172,6676,14664,-0.0105,0.4075,0.895,24.4766,0.6116
2019-01-28 20:53:05.26,849,-393,243,78,-3.0,1.855,0.5954,-56,6780,14772,-0.0034,0.4138,0.9016,24.6539,0.1974
2019-01-28 20:53:05.37,850,-429,247,59,-3.2748,1.8855,0.4504,-96,6784,14840,-0.0059,0.4141,0.9058,24.5667,0.3371
2019-01-28 20:53:05.48,851,-425,261,74,-3.2443,1.9924,0.5649,-200,6756,14640,-0.0122,0.4124,0.8936,24.7701,0.7107
2019-01-28 20:53:05.60,852,-432,267,83,-3.2977,2.0382,0.6336,-32,6792,14680,-0.002,0.4146,0.896,24.8285,0.1134
2019-01-28 20:53:05.71,853,-391,235,47,-2.9847,1.7939,0.3588,-172,7092,14872,-0.0105,0.4329,0.9077,25.4936,0.5981
2019-01-28 20:53:05.82,854,-415,248,76,-3.1679,1.8931,0.5802,-68,6772,14884,-0.0042,0.4133,0.9084,24.4646,0.2383
2019-01-28 20:53:05.93,855,-406,239,71,-3.0992,1.8244,0.542,-92,6764,14852,-0.0056,0.4128,0.9065,24.4854,0.323
2019-01-28 20:53:06.05,856,-422,511,75,-3.2214,3.9008,0.5725,-176,6736,14712,-0.0107,0.4111,0.8979,24.5995,0.6232
2019-01-28 20:53:06.16,857,-430,4,65,-3.2824,0.0305,0.4962,-392,6764,14596,-0.0239,0.4128,0.8909,24.8558,1.3959
2019-01-28 20:53:06.27,858,-412,263,72,-3.145,2.0076,0.5496,-168,6712,14792,-0.0103,0.4097,0.9028,24.4052,0.5926
2019-01-28 20:53:06.39,859,-400,249,86,-3.0534,1.9008,0.6565,-192,6724,14808,-0.0117,0.4104,0.9038,24.42,0.6764
2019-01-28 20:53:06.50,860,-448,246,108,-3.4198,1.8779,0.8244,-112,6748,14756,-0.0068,0.4119,0.9006,24.5743,0.3955
2019-01-28 20:53:06.62,861,-424,259,77,-3.2366,1.9771,0.5878,-144,6780,14752,-0.0088,0.4138,0.9004,24.6824,0.5082
2019-01-28 20:53:06.73,862,-408,249,88,-3.1145,1.9008,0.6718,-96,6792,14776,-0.0059,0.4146,0.9019,24.6861,0.3382
2019-01-28 20:53:06.84,863,-417,510,81,-3.1832,3.8931,0.6183,-156,6700,14748,-0.0095,0.4089,0.9001,24.431,0.5518
2019-01-28 20:53:06.95,864,-444,306,64,-3.3893,2.3359,0.4885,-116,6776,14820,-0.0071,0.4136,0.9045,24.5702,0.4079
2019-01-28 20:53:07.06,865,-413,243,83,-3.1527,1.855,0.6336,-20,6760,14620,-0.0012,0.4126,0.8923,24.8149,0.0711
2019-01-28 20:53:07.18,866,-421,248,74,-3.2137,1.8931,0.5649,-164,6796,14700,-0.01,0.4148,0.8972,24.8104,0.5802
2019-01-28 20:53:07.29,867,-415,268,71,-3.1679,2.0458,0.542,-148,6780,14880,-0.009,0.4138,0.9082,24.4951,0.5186
2019-01-28 20:53:07.40,868,-392,13,44,-2.9924,0.0992,0.3359,20,6688,14780,0.0012,0.4082,0.9021,24.3469,-0.0706
2019-01-28 20:53:07.51,869,-394,3,63,-3.0076,0.0229,0.4809,-124,6772,14668,-0.0076,0.4133,0.8953,24.7813,0.4398
2019-01-28 20:53:07.63,870,-406,229,69,-3.0992,1.7481,0.5267,-168,6644,14732,-0.0103,0.4055,0.8992,24.2736,0.5956
2019-01-28 20:53:07.74,871,-424,260,53,-3.2366,1.9847,0.4046,-152,6892,14920,-0.0093,0.4207,0.9106,24.7925,0.5299
2019-01-28 20:53:07.85,872,-409,246,89,-3.1221,1.8779,0.6794,-16,6784,15028,-0.001,0.4141,0.9172,24.2955,0.0556
2019-01-28 20:53:07.96,873,-469,504,68,-3.5802,3.8473,0.5191,-212,6704,14668,-0.0129,0.4092,0.8953,24.5605,0.7531
2019-01-28 20:53:08.08,874,-439,281,70,-3.3511,2.145,0.5344,-236,6676,14740,-0.0144,0.4075,0.8997,24.3638,0.8356
2019-01-28 20:53:08.19,875,-415,257,74,-3.1679,1.9618,0.5649,-152,6740,14760,-0.0093,0.4114,0.9009,24.5422,0.5367
2019-01-28 20:53:08.30,876,-390,511,102,-2.9771,3.9008,0.7786,-152,6764,14792,-0.0093,0.4128,0.9028,24.5723,0.5354
2019-01-28 20:53:08.41,877,-405,274,73,-3.0916,2.0916,0.5573,-92,6776,14924,-0.0056,0.4136,0.9109,24.4192,0.3216
2019-01-28 20:53:08.53,878,-403,254,76,-3.0763,1.9389,0.5802,-112,6804,14800,-0.0068,0.4153,0.9033,24.689,0.3939
2019-01-28 20:53:08.64,879,-415,261,67,-3.1679,1.9924,0.5115,-144,6736,14784,-0.0088,0.4111,0.9023,24.4943,0.5078
2019-01-28 20:53:08.75,880,-384,491,78,-2.9313,3.7481,0.5954,-192,6760,14764,-0.0117,0.4126,0.9011,24.5998,0.6774
2019-01-28 20:53:08.86,881,-421,259,60,-3.2137,1.9771,0.458,-244,6800,14744,-0.0149,0.415,0.8999,24.7564,0.861
2019-01-28 20:53:08.98,882,-423,510,66,-3.229,3.8931,0.5038,-44,6828,14840,-0.0027,0.4167,0.9058,24.7074,0.1543
2019-01-28 20:53:09.09,883,-438,263,36,-3.3435,2.0076,0.2748,-36,6716,14780,-0.0022,0.4099,0.9021,24.4369,0.1271
2019-01-28 20:53:09.20,884,-435,268,71,-3.3206,2.0458,0.542,-120,6744,14836,-0.0073,0.4116,0.9055,24.4444,0.4219
2019-01-28 20:53:09.31,885,-425,286,76,-3.2443,2.1832,0.5802,-140,6780,14776,-0.0085,0.4138,0.9019,24.6472,0.4934
2019-01-28 20:53:09.42,886,-435,268,92,-3.3206,2.0458,0.7023,-100,6772,15088,-0.0061,0.4133,0.9209,24.1717,0.3464
2019-01-28 20:53:09.54,887,-422,278,77,-3.2214,2.1221,0.5878,0,6736,14684,0.0,0.4111,0.8962,24.6424,-0.0
2019-01-28 20:53:09.65,888,-438,258,56,-3.3435,1.9695,0.4275,-20,6924,14608,-0.0012,0.4226,0.8916,25.3603,0.0709
2019-01-28 20:53:09.76,889,-428,241,88,-3.2672,1.8397,0.6718,16,6792,14864,0.001,0.4146,0.9072,24.5577,-0.0561
2019-01-28 20:53:09.87,890,-434,249,57,-3.313,1.9008,0.4351,-148,6728,14872,-0.009,0.4106,0.9077,24.3406,0.5195
2019-01-28 20:53:09.99,891,-418,234,55,-3.1908,1.7863,0.4198,-184,6568,14792,-0.0112,0.4009,0.9028,23.9407,0.6514
2019-01-28 20:53:10.10,892,-400,237,68,-3.0534,1.8092,0.5191,-84,6764,14620,-0.0051,0.4128,0.8923,24.8274,0.2988
2019-01-28 20:53:10.21,893,-404,249,77,-3.084,1.9008,0.5878,-128,6412,14884,-0.0078,0.3914,0.9084,23.3055,0.4525
2019-01-28 20:53:10.32,894,-419,258,84,-3.1985,1.9695,0.6412,-72,6844,14752,-0.0044,0.4177,0.9004,24.8881,0.2537
2019-01-28 20:53:10.44,895,-419,277,98,-3.1985,2.1145,0.7481,-260,6704,14728,-0.0159,0.4092,0.8989,24.4711,0.9205
2019-01-28 20:53:10.55,896,-404,262,72,-3.084,2.0,0.5496,-432,6444,14992,-0.0264,0.3933,0.915,23.2508,1.5165
2019-01-28 20:53:10.66,897,-395,244,99,-3.0153,1.8626,0.7557,-52,6752,14748,-0.0032,0.4121,0.9001,24.5993,0.1837
2019-01-28 20:53:10.77,898,-409,259,77,-3.1221,1.9771,0.5878,-220,6892,14608,-0.0134,0.4207,0.8916,25.2553,0.7803
2019-01-28 20:53:10.89,899,-413,499,80,-3.1527,3.8092,0.6107,-408,6432,14792,-0.0249,0.3926,0.9028,23.4929,1.449
2019-01-28 20:53:11.00,900,-416,272,62,-3.1756,2.0763,0.4733,-188,6688,14600,-0.0115,0.4082,0.8911,24.6099,0.6707
2019-01-28 20:53:11.11,901,-443,262,51,-3.3817,2.0,0.3893,-248,6692,14776,-0.0151,0.4084,0.9019,24.3626,0.8759
2019-01-28 20:53:11.22,902,-422,271,81,-3.2214,2.0687,0.6183,-96,6764,14728,-0.0059,0.4128,0.8989,24.667,0.3394
2019-01-28 20:53:11.33,903,-428,511,78,-3.2672,3.9008,0.5954,-188,6700,14752,-0.0115,0.4089,0.9004,24.4246,0.6648
2019-01-28 20:53:11.45,904,-424,283,75,-3.2366,2.1603,0.5725,-112,6688,14860,-0.0068,0.4082,0.907,24.2303,0.3938
2019-01-28 20:53:11.56,905,-423,263,77,-3.229,2.0076,0.5878,-4,6736,14788,-0.0002,0.4111,0.9026,24.4895,0.0141
2019-01-28 20:53:11.67,906,-409,268,71,-3.1221,2.0458,0.542,-140,6732,14824,-0.0085,0.4109,0.9048,24.4232,0.4927
2019-01-28 20:53:11.78,907,-423,272,74,-3.229,2.0763,0.5649,-152,6712,14808,-0.0093,0.4097,0.9038,24.3822,0.5357
2019-01-28 20:53:11.90,908,-454,262,71,-3.4656,2.0,0.542,-124,6796,15076,-0.0076,0.4148,0.9202,24.2643,0.4296
2019-01-28 20:53:12.01,909,-413,265,74,-3.1527,2.0229,0.5649,-112,6620,14656,-0.0068,0.4041,0.8945,24.3077,0.399
2019-01-28 20:53:12.12,910,-414,270,77,-3.1603,2.0611,0.5878,-52,6668,15040,-0.0032,0.407,0.918,23.91,0.1811
2019-01-28 20:53:12.23,911,-427,254,74,-3.2595,1.9389,0.5649,-176,6624,14768,-0.0107,0.4043,0.9014,24.1565,0.623
2019-01-28 20:53:12.35,912,-399,274,80,-3.0458,2.0916,0.6107,-180,6704,14864,-0.011,0.4092,0.9072,24.2749,0.6325
2019-01-28 20:53:12.46,913,-424,254,91,-3.2366,1.9389,0.6947,-148,6624,14604,-0.009,0.4043,0.8914,24.3967,0.5288
2019-01-28 20:53:12.57,914,-423,261,73,-3.229,1.9924,0.5573,-72,6668,14832,-0.0044,0.407,0.9053,24.2069,0.2537
2019-01-28 20:53:12.68,915,-409,12,62,-3.1221,0.0916,0.4733,-144,6844,14848,-0.0088,0.4177,0.9062,24.7457,0.5046
2019-01-28 20:53:12.80,916,-406,264,83,-3.0992,2.0153,0.6336,-20,6904,14832,-0.0012,0.4214,0.9053,24.961,0.07
2019-01-28 20:53:12.91,917,-393,506,71,-3.0,3.8626,0.542,-136,6788,15012,-0.0083,0.4143,0.9163,24.3302,0.473
2019-01-28 20:53:13.02,918,-416,245,78,-3.1756,1.8702,0.5954,-36,6684,15024,-0.0022,0.408,0.917,23.9837,0.1254
2019-01-28 20:53:13.14,919,-405,276,78,-3.0916,2.1069,0.5954,-292,6772,15092,-0.0178,0.4133,0.9211,24.1625,1.0113
2019-01-28 20:53:13.25,920,-410,267,71,-3.1298,2.0382,0.542,-148,6692,14788,-0.009,0.4084,0.9026,24.3471,0.5224
2019-01-28 20:53:13.36,921,-418,290,70,-3.1908,2.2137,0.5344,-72,6692,14844,-0.0044,0.4084,0.906,24.2666,0.2534
2019-01-28 20:53:13.48,922,-399,271,77,-3.0458,2.0687,0.5878,-320,6744,14604,-0.0195,0.4116,0.8914,24.7818,1.1396
2019-01-28 20:53:13.59,923,-400,2,81,-3.0534,0.0153,0.6183,-504,6880,14804,-0.0308,0.4199,0.9036,24.9135,1.7684
2019-01-28 20:53:13.70,924,-420,278,56,-3.2061,2.1221,0.4275,-256,6704,14936,-0.0156,0.4092,0.9116,24.1697,0.8959
2019-01-28 20:53:13.81,925,-390,266,64,-2.9771,2.0305,0.4885,-144,6760,15100,-0.0088,0.4126,0.9216,24.1162,0.4987
2019-01-28 20:53:13.92,926,-406,239,59,-3.0992,1.8244,0.4504,-88,6768,14832,-0.0054,0.4131,0.9053,24.5273,0.3093
2019-01-28 20:53:14.04,927,-432,288,39,-3.2977,2.1985,0.2977,-60,6660,14676,-0.0037,0.4065,0.8958,24.4085,0.2133
2019-01-28 20:53:14.15,928,-427,292,61,-3.2595,2.229,0.4656,-200,6688,14628,-0.0122,0.4082,0.8928,24.5681,0.7124
2019-01-28 20:53:14.26,929,-434,284,68,-3.313,2.1679,0.5191,-480,6632,15044,-0.0293,0.4048,0.9182,23.7791,1.6723
2019-01-28 20:53:14.37,930,-429,508,53,-3.2748,3.8779,0.4046,-120,6676,14804,-0.0073,0.4075,0.9036,24.2727,0.4234
2019-01-28 20:53:14.49,931,-427,266,68,-3.2595,2.0305,0.5191,-196,6700,14728,-0.012,0.4089,0.8989,24.4596,0.694
2019-01-28 20:53:14.60,932,-412,260,65,-3.145,1.9847,0.4962,-220,6672,14792,-0.0134,0.4072,0.9028,24.2756,0.7767
2019-01-28 20:53:14.71,933,-397,247,73,-3.0305,1.8855,0.5573,-88,6772,14820,-0.0054,0.4133,0.9045,24.5577,0.3094
2019-01-28 20:53:14.82,934,-431,263,64,-3.2901,2.0076,0.4885,-76,6668,14832,-0.0046,0.407,0.9053,24.2069,0.2678
2019-01-28 20:53:14.94,935,-431,267,81,-3.2901,2.0382,0.6183,-196,6696,14628,-0.012,0.4087,0.8928,24.5941,0.698
2019-01-28 20:53:15.05,936,-409,266,55,-3.1221,2.0305,0.4198,-128,6744,14628,-0.0078,0.4116,0.8928,24.7505,0.4553
2019-01-28 20:53:15.16,937,-413,267,70,-3.1527,2.0382,0.5344,-124,6676,14740,-0.0076,0.4075,0.8997,24.3658,0.4391
2019-01-28 20:53:15.27,938,-426,245,62,-3.2519,1.8702,0.4733,-164,6760,14820,-0.01,0.4126,0.9045,24.5183,0.5768
2019-01-28 20:53:15.39,939,-403,266,78,-3.0763,2.0305,0.5954,-120,6700,14792,-0.0073,0.4089,0.9028,24.3673,0.4234
2019-01-28 20:53:15.50,940,-420,1,66,-3.2061,0.0076,0.5038,-216,6408,14804,-0.0132,0.3911,0.9036,23.4034,0.7671
2019-01-28 20:53:15.61,941,-401,511,65,-3.0611,3.9008,0.4962,-136,6732,14872,-0.0083,0.4109,0.9077,24.3536,0.4773
2019-01-28 20:53:15.72,942,-449,270,55,-3.4275,2.0611,0.4198,-284,6452,14712,-0.0173,0.3938,0.8979,23.6761,1.0128
2019-01-28 20:53:15.84,943,-553,660,158,-4.2214,5.0382,1.2061,76,6692,14756,0.0046,0.4084,0.9006,24.3945,-0.2688
2019-01-28 20:53:15.95,944,-365,249,86,-2.7863,1.9008,0.6565,-212,6664,14680,-0.0129,0.4067,0.896,24.4135,0.7534
2019-01-28 20:53:16.06,945,-406,277,71,-3.0992,2.1145,0.542,-116,6436,14688,-0.0071,0.3928,0.8965,23.6615,0.4144
2019-01-28 20:53:16.17,946,-403,509,78,-3.0763,3.8855,0.5954,-172,6776,14764,-0.0105,0.4136,0.9011,24.6515,0.6066
2019-01-28 20:53:16.29,947,-388,374,-25,-2.9618,2.855,-0.1908,364,6444,14696,0.0222,0.3933,0.897,23.6703,-1.2995
2019-01-28 20:53:16.40,948,-332,283,111,-2.5344,2.1603,0.8473,-152,6832,15020,-0.0093,0.417,0.9167,24.4578,0.5278
2019-01-28 20:53:16.51,949,-762,235,52,-5.8168,1.7939,0.3969,-224,6648,14820,-0.0137,0.4058,0.9045,24.1577,0.7901
2019-01-28 20:53:16.62,950,-420,82,168,-3.2061,0.626,1.2824,-124,6552,14812,-0.0076,0.3999,0.9041,23.8612,0.4386
2019-01-28 20:53:16.74,951,-157,501,99,-1.1985,3.8244,0.7557,-472,6920,15020,-0.0288,0.4224,0.9167,24.7257,1.6349
2019-01-28 20:53:16.85,952,-408,196,119,-3.1145,1.4962,0.9084,-92,6700,14736,-0.0056,0.4089,0.8994,24.4494,0.3256
2019-01-28 20:53:16.96,953,-400,258,35,-3.0534,1.9695,0.2672,-124,6780,14636,-0.0076,0.4138,0.8933,24.8547,0.4405
2019-01-28 20:53:17.07,954,-637,-181,462,-4.8626,-1.3817,3.5267,-452,6704,14812,-0.0276,0.4092,0.9041,24.3418,1.5925
2019-01-28 20:53:17.18,955,-197,649,155,-1.5038,4.9542,1.1832,-168,7104,14952,-0.0103,0.4336,0.9126,25.4119,0.5815
2019-01-28 20:53:17.30,956,-365,505,80,-2.7863,3.855,0.6107,-112,6824,14612,-0.0068,0.4165,0.8918,25.0326,0.3979
2019-01-28 20:53:17.41,957,-399,508,77,-3.0458,3.8779,0.5878,-76,6700,15072,-0.0046,0.4089,0.9199,23.9665,0.264
2019-01-28 20:53:17.52,958,-424,260,65,-3.2366,1.9847,0.4962,-156,6756,14632,-0.0095,0.4124,0.8931,24.7828,0.5546
2019-01-28 20:53:17.63,959,-411,277,64,-3.1374,2.1145,0.4885,-168,6728,14996,-0.0103,0.4106,0.9153,24.1622,0.5856
2019-01-28 20:53:17.75,960,-435,5,63,-3.3206,0.0382,0.4809,-68,6756,14756,-0.0042,0.4124,0.9006,24.6003,0.2401
2019-01-28 20:53:17.86,961,-428,274,87,-3.2672,2.0916,0.6641,-60,6772,14892,-0.0037,0.4133,0.9089,24.4531,0.2101
2019-01-28 20:53:17.97,962,-413,246,68,-3.1527,1.8779,0.5191,-156,6420,14796,-0.0095,0.3918,0.9031,23.4549,0.5542
2019-01-28 20:53:18.08,963,-430,266,78,-3.2824,2.0305,0.5954,-112,6676,14800,-0.0068,0.4075,0.9033,24.2786,0.3952
2019-01-28 20:53:18.20,964,-386,160,117,-2.9466,1.2214,0.8931,-84,6760,15132,-0.0051,0.4126,0.9236,24.0717,0.2904
2019-01-28 20:53:18.31,965,-379,252,109,-2.8931,1.9237,0.8321,-100,6876,15008,-0.0061,0.4197,0.916,24.6147,0.3471
2019-01-28 20:53:18.42,966,-409,185,94,-3.1221,1.4122,0.7176,-72,6768,14908,-0.0044,0.4131,0.9099,24.4171,0.252
2019-01-28 20:53:18.54,967,-391,205,90,-2.9847,1.5649,0.687,-192,6752,14844,-0.0117,0.4121,0.906,24.4573,0.6746
2019-01-28 20:53:18.65,968,-413,11,82,-3.1527,0.084,0.626,-276,6800,15080,-0.0168,0.415,0.9204,24.2684,0.9559
2019-01-28 20:53:18.76,969,-418,284,61,-3.1908,2.1679,0.4656,-60,6884,14676,-0.0037,0.4202,0.8958,25.1295,0.2121
2019-01-28 20:53:18.87,970,-413,271,52,-3.1527,2.0687,0.3969,-144,6780,14740,-0.0088,0.4138,0.8997,24.7001,0.5085
2019-01-28 20:53:18.99,971,-407,268,66,-3.1069,2.0458,0.5038,-164,6692,14664,-0.01,0.4084,0.895,24.5285,0.5829
2019-01-28 20:53:19.10,972,-394,260,398,-3.0076,1.9847,3.0382,-92,6936,14864,-0.0056,0.4233,0.9072,25.0148,0.3214
2019-01-28 20:53:19.21,973,-387,116,-169,-2.9542,0.8855,-1.2901,-232,6684,15276,-0.0142,0.408,0.9324,23.6293,0.7971
2019-01-28 20:53:19.32,974,-736,510,-170,-5.6183,3.8931,-1.2977,68,7128,15508,0.0042,0.4351,0.9465,24.6849,-0.2283
2019-01-28 20:53:19.44,975,-559,1149,1170,-4.2672,8.771,8.9313,44,6492,14620,0.0027,0.3962,0.8923,23.9435,-0.1576
2019-01-28 20:53:19.55,976,-666,-1103,-1791,-5.084,-8.4198,-13.6718,-1116,6740,15244,-0.0681,0.4114,0.9304,23.7956,3.8306
2019-01-28 20:53:19.66,977,-703,-9040,5882,-5.3664,-69.0076,44.9008,1892,5388,13928,0.1155,0.3289,0.8501,20.9731,-7.2205
2019-01-28 20:53:19.77,978,1054,2999,-1129,8.0458,22.8931,-8.6183,3320,5780,14216,0.2026,0.3528,0.8677,21.6001,-12.2073
2019-01-28 20:53:19.89,979,-249,6630,-7137,-1.9008,50.6107,-54.4809,1372,7164,14532,0.0837,0.4373,0.887,26.1417,-4.8403
2019-01-28 20:53:20.00,980,648,-1376,874,4.9466,-10.5038,6.6718,-320,6668,15976,-0.0195,0.407,0.9751,22.6504,1.059
2019-01-28 20:53:20.11,981,-1764,1108,-4262,-13.4656,8.458,-32.5344,112,6844,15608,0.0068,0.4177,0.9526,23.6766,-0.3765
2019-01-28 20:53:20.22,982,-2015,-73,-765,-15.3817,-0.5573,-5.8397,-128,7304,16880,-0.0078,0.4458,1.0303,23.3976,0.3987
2019-01-28 20:53:20.34,983,2230,2417,-2302,17.0229,18.4504,-17.5725,-1420,7708,16476,-0.0867,0.4705,1.0056,24.9904,4.4638
2019-01-28 20:53:20.45,984,-1302,-207,-2092,-9.9389,-1.5802,-15.9695,-924,5344,13428,-0.0564,0.3262,0.8196,21.6548,3.6582
2019-01-28 20:53:20.56,985,834,-3079,2985,6.3664,-23.5038,22.7863,316,7696,14036,0.0193,0.4697,0.8567,28.73,-1.1309
2019-01-28 20:53:20.67,986,582,-1973,2162,4.4427,-15.0611,16.5038,320,8296,14988,0.0195,0.5063,0.9148,28.9594,-1.0702
2019-01-28 20:53:20.79,987,2416,729,-155,18.4427,5.5649,-1.1832,1736,9360,15648,0.106,0.5713,0.9551,30.732,-5.4386
2019-01-28 20:53:20.90,988,1246,1154,-1075,9.5115,8.8092,-8.2061,2052,8384,14004,0.1252,0.5117,0.8547,30.6408,-7.1657
2019-01-28 20:53:21.01,989,-5162,-1405,-677,-39.4046,-10.7252,-5.1679,1640,8556,13840,0.1001,0.5222,0.8447,31.5463,-5.7555
2019-01-28 20:53:21.12,990,-7347,2557,411,-56.084,19.5191,3.1374,1128,6956,12232,0.0688,0.4246,0.7466,29.5216,-4.5831
2019-01-28 20:53:21.23,991,-2416,230,5480,-18.4427,1.7557,41.8321,3764,6248,12568,0.2297,0.3813,0.7671,25.4655,-15.0123
2019-01-28 20:53:21.35,992,-1579,-2090,8867,-12.0534,-15.9542,67.687,4156,3988,11952,0.2537,0.2434,0.7295,17.4927,-18.255
2019-01-28 20:53:21.46,993,6427,1331,2386,49.0611,10.1603,18.2137,3240,5664,15752,0.1978,0.3457,0.9614,19.4023,-10.9545
2019-01-28 20:53:21.57,994,-2468,-2641,4709,-18.8397,-20.1603,35.9466,1732,5752,14732,0.1057,0.3511,0.8992,21.1949,-6.2499
2019-01-28 20:53:21.68,995,-614,187,735,-4.687,1.4275,5.6107,420,5952,15320,0.0256,0.3633,0.9351,21.2245,-1.4638
2019-01-28 20:53:21.80,996,-1846,-1002,-2452,-14.0916,-7.6489,-18.7176,-8,6980,15976,-0.0005,0.426,0.9751,23.6008,0.0263
2019-01-28 20:53:21.91,997,145,769,-2997,1.1069,5.8702,-22.8779,884,5716,15216,0.054,0.3489,0.9287,20.5573,-3.113
2019-01-28 20:53:22.02,998,-957,877,-440,-7.3053,6.6947,-3.3588,-88,6652,15156,-0.0054,0.406,0.925,23.6964,0.3046
2019-01-28 20:53:22.13,999,-3370,2390,1462,-25.7252,18.2443,11.1603,164,6560,13720,0.01,0.4004,0.8374,25.5525,-0.6179
2019-01-28 20:53:22.25,1000,352,3104,125,2.687,23.6947,0.9542,320,7840,14224,0.0195,0.4785,0.8682,28.8566,-1.1287
2019-01-28 20:53:22.36,1001,-2158,-906,603,-16.4733,-6.916,4.6031,480,8208,14364,0.0293,0.501,0.8767,29.7311,-1.6619
2019-01-28 20:53:22.47,1002,1669,1603,-1262,12.7405,12.2366,-9.6336,320,7756,16328,0.0195,0.4734,0.9966,25.404,-1.0142
2019-01-28 20:53:22.58,1003,87,1873,-22,0.6641,14.2977,-0.1679,832,6484,16392,0.0508,0.3958,1.0005,21.5565,-2.7022
2019-01-28 20:53:22.70,1004,-779,2808,-112,-5.9466,21.4351,-0.855,1660,5356,13040,0.1013,0.3269,0.7959,22.1683,-6.7159
2019-01-28 20:53:22.81,1005,2232,-845,350,17.0382,-6.4504,2.6718,428,5828,13204,0.0261,0.3557,0.8059,23.8047,-1.6986
2019-01-28 20:53:22.92,1006,-1983,314,-211,-15.1374,2.3969,-1.6107,1524,6780,13896,0.093,0.4138,0.8481,25.8735,-5.6292
2019-01-28 20:53:23.03,1007,2554,1103,-1416,19.4962,8.4198,-10.8092,216,8048,17916,0.0132,0.4912,1.0935,24.1884,-0.6301
2019-01-28 20:53:23.15,1008,-1756,3222,5657,-13.4046,24.5954,43.1832,-1904,6028,16416,-0.1162,0.3679,1.002,20.0398,6.2137
2019-01-28 20:53:23.26,1009,-1007,4312,7898,-7.687,32.916,60.2901,136,4304,12656,0.0083,0.2627,0.7725,18.7809,-0.5829
2019-01-28 20:53:23.37,1010,-235,-2004,5068,-1.7939,-15.2977,38.687,1448,6300,12012,0.0884,0.3845,0.7332,27.5063,-6.0935
2019-01-28 20:53:23.49,1011,1012,-786,849,7.7252,-6.0,6.4809,872,7588,16824,0.0532,0.4631,1.0269,24.2476,-2.7051
2019-01-28 20:53:23.60,1012,2963,-3829,-3298,22.6183,-29.229,-25.1756,3180,8168,16852,0.1941,0.4985,1.0286,25.4677,-9.6373
2019-01-28 20:53:23.71,1013,2021,-3379,-5225,15.4275,-25.7939,-39.8855,1692,6892,14540,0.1033,0.4207,0.8875,25.2123,-6.0028
2019-01-28 20:53:23.82,1014,1239,2588,-3428,9.458,19.7557,-26.1679,552,5692,12740,0.0337,0.3474,0.7776,24.0542,-2.2654
2019-01-28 20:53:23.94,1015,-1246,1230,-3303,-9.5115,9.3893,-25.2137,2164,6280,12700,0.1321,0.3833,0.7751,25.9875,-8.6842
2019-01-28 20:53:24.05,1016,-377,-1837,-689,-2.8779,-14.0229,-5.2595,1500,6676,17332,0.0916,0.4075,1.0579,20.9943,-4.6173
2019-01-28 20:53:24.16,1017,-295,3222,1792,-2.2519,24.5954,13.6794,2100,7000,17164,0.1282,0.4272,1.0476,22.0387,-6.4635
2019-01-28 20:53:24.28,1018,-5436,2233,5240,-41.4962,17.0458,40.0,640,5812,13940,0.0391,0.3547,0.8508,22.6113,-2.4265
2019-01-28 20:53:24.39,1019,1486,-462,2427,11.3435,-3.5267,18.5267,528,6408,12052,0.0322,0.3911,0.7356,27.9766,-2.2152
2019-01-28 20:53:24.50,1020,622,309,132,4.7481,2.3588,1.0076,528,7496,14652,0.0322,0.4575,0.8943,27.0793,-1.8375
2019-01-28 20:53:24.61,1021,2675,-2297,-4782,20.4198,-17.5344,-36.5038,2100,8472,16164,0.1282,0.5171,0.9866,27.4636,-6.5642
2019-01-28 20:53:24.73,1022,-108,-3023,-4534,-0.8244,-23.0763,-34.6107,672,7188,14752,0.041,0.4387,0.9004,25.9546,-2.345
2019-01-28 20:53:24.84,1023,-1738,3867,-7007,-13.2672,29.5191,-53.4885,2088,5772,14176,0.1274,0.3523,0.8652,21.9406,-7.7682
2019-01-28 20:53:24.95,1024,-1903,-3758,-7482,-14.5267,-28.687,-57.1145,2372,5968,12444,0.1448,0.3643,0.7595,25.2254,-9.7522
2019-01-28 20:53:25.06,1025,1050,-651,-8492,8.0153,-4.9695,-64.8244,832,7092,14612,0.0508,0.4329,0.8918,25.8534,-2.9324
2019-01-28 20:53:25.18,1026,-482,-4340,-7705,-3.6794,-33.1298,-58.8168,540,9044,16696,0.033,0.552,1.019,28.4313,-1.629
2019-01-28 20:53:25.29,1027,-3271,-3609,-2915,-24.9695,-27.5496,-22.2519,-652,7212,16624,-0.0398,0.4402,1.0146,23.4366,2.0606
2019-01-28 20:53:25.40,1028,1559,-4362,-5814,11.9008,-33.2977,-44.3817,1364,6828,12984,0.0833,0.4167,0.7925,27.6096,-5.3121
2019-01-28 20:53:25.51,1029,457,-2785,-5784,3.4885,-21.2595,-44.1527,1516,6400,13184,0.0925,0.3906,0.8047,25.7461,-5.9059
2019-01-28 20:53:25.63,1030,935,-3731,-9165,7.1374,-28.4809,-69.9618,1724,7592,14960,0.1052,0.4634,0.9131,26.755,-5.8674
2019-01-28 20:53:25.74,1031,-392,-3603,-9228,-2.9924,-27.5038,-70.4427,2600,7292,17336,0.1587,0.4451,1.0581,22.5861,-7.871
2019-01-28 20:53:25.85,1032,-2789,-3320,-9012,-21.2901,-25.3435,-68.7939,3244,6184,14384,0.198,0.3774,0.8779,22.7526,-11.7056
2019-01-28 20:53:25.97,1033,-964,-2377,-8721,-7.3588,-18.145,-66.5725,-576,6680,14208,-0.0352,0.4077,0.8672,25.1628,2.1011
2019-01-28 20:53:26.08,1034,-2657,-3166,-2521,-20.2824,-24.1679,-19.2443,800,7236,13920,0.0488,0.4417,0.8496,27.428,-2.9192
2019-01-28 20:53:26.19,1035,1963,-1341,-3633,14.9847,-10.2366,-27.7328,1312,6480,14608,0.0801,0.3955,0.8916,23.8365,-4.6934
2019-01-28 20:53:26.30,1036,-1696,2970,298,-12.9466,22.6718,2.2748,276,7340,17064,0.0168,0.448,1.0415,23.272,-0.8512
2019-01-28 20:53:26.42,1037,-536,-3936,-354,-4.0916,-30.0458,-2.7023,1072,5892,12792,0.0654,0.3596,0.7808,24.6547,-4.3527
2019-01-28 20:53:26.53,1038,2913,-1473,-1954,22.2366,-11.2443,-14.916,440,6852,13820,0.0269,0.4182,0.8435,26.3608,-1.6339
2019-01-28 20:53:26.64,1039,236,-2014,-499,1.8015,-15.374,-3.8092,572,6464,13824,0.0349,0.3945,0.8438,25.0416,-2.1466
2019-01-28 20:53:26.75,1040,1781,-2132,-3597,13.5954,-16.2748,-27.458,1100,6400,15352,0.0671,0.3906,0.937,22.5784,-3.7838
2019-01-28 20:53:26.87,1041,-2783,-1916,-1954,-21.2443,-14.626,-14.916,712,6464,16464,0.0435,0.3945,1.0049,21.4175,-2.3052
2019-01-28 20:53:26.98,1042,-867,-685,-3451,-6.6183,-5.229,-26.3435,1348,5740,16136,0.0823,0.3503,0.9849,19.519,-4.5004
2019-01-28 20:53:27.09,1043,-1369,-624,-3488,-10.4504,-4.7634,-26.626,1216,5956,15580,0.0742,0.3635,0.9509,20.8631,-4.1697
2019-01-28 20:53:27.20,1044,-2918,1392,-624,-22.2748,10.626,-4.7634,1148,5940,15464,0.0701,0.3625,0.9438,20.96,-3.9643
2019-01-28 20:53:27.32,1045,-2073,1566,-451,-15.8244,11.9542,-3.4427,500,6336,16072,0.0305,0.3867,0.981,21.5062,-1.6578
2019-01-28 20:53:27.43,1046,-1726,2187,533,-13.1756,16.6947,4.0687,332,6580,14936,0.0203,0.4016,0.9116,23.7705,-1.1653
2019-01-28 20:53:27.54,1047,-2251,2151,2345,-17.1832,16.4198,17.9008,-588,6156,14892,-0.0359,0.3757,0.9089,22.4433,2.0898
2019-01-28 20:53:27.65,1048,382,1477,593,2.916,11.2748,4.5267,-1024,6144,15052,-0.0625,0.375,0.9187,22.1583,3.6041
2019-01-28 20:53:27.77,1049,21,1001,2689,0.1603,7.6412,20.5267,-680,7228,17204,-0.0415,0.4412,1.05,22.773,2.0869
2019-01-28 20:53:27.88,1050,395,-1311,3568,3.0153,-10.0076,27.2366,256,6556,15160,0.0156,0.4001,0.9253,23.3833,-0.888
2019-01-28 20:53:27.99,1051,215,1419,429,1.6412,10.8321,3.2748,1220,5532,13520,0.0745,0.3376,0.8252,22.1717,-4.774
2019-01-28 20:53:28.10,1052,120,1174,-903,0.916,8.9618,-6.8931,328,7180,15396,0.02,0.4382,0.9397,24.9972,-1.1061
2019-01-28 20:53:28.22,1053,-2049,-548,1368,-15.6412,-4.1832,10.4427,-420,6408,15112,-0.0256,0.3911,0.9224,22.9706,1.4657
2019-01-28 20:53:28.33,1054,473,443,-51,3.6107,3.3817,-0.3893,-472,6388,14232,-0.0288,0.3899,0.8687,24.1611,1.733
2019-01-28 20:53:28.44,1055,-1085,1869,85,-8.2824,14.2672,0.6489,-288,6616,15048,-0.0176,0.4038,0.9185,23.7293,1.0037
2019-01-28 20:53:28.55,1056,-290,560,-221,-2.2137,4.2748,-1.687,-400,6680,15308,-0.0244,0.4077,0.9343,23.568,1.3719
2019-01-28 20:53:28.67,1057,1006,661,-296,7.6794,5.0458,-2.2595,-536,6924,14932,-0.0327,0.4226,0.9114,24.8632,1.8652
2019-01-28 20:53:28.78,1058,-779,567,920,-5.9466,4.3282,7.0229,-68,7320,15176,-0.0042,0.4468,0.9263,25.7497,0.2312
2019-01-28 20:53:28.89,1059,75,22,969,0.5725,0.1679,7.3969,-124,6728,15164,-0.0076,0.4106,0.9255,23.9253,0.4283
